time,seconds_elapsed,z,y,x
1663326947248946700,0.73994677734375,-1.02154541015625,0.059600830078125,-0.09320068359375
1663326947258903800,0.74990380859375,-1.017364501953125,0.079620361328125,-0.10076904296875
1663326947268860700,0.759860595703125,-0.9915008544921875,0.0544891357421875,-0.1016845703125
1663326947278816800,0.769816650390625,-0.98980712890625,0.023284912109375,-0.0841064453125
1663326947288773600,0.779773681640625,-1.0081939697265625,0.0392913818359375,-0.041656494140625
1663326947298730500,0.78973046875,-1.010711669921875,0.0800323486328125,-0.0160369873046875
1663326947308687600,0.7996875,-1.0164794921875,0.10333251953125,0.032958984375
1663326947318643500,0.8096435546875,-1.0001983642578125,0.1339874267578125,0.0338592529296875
1663326947328600600,0.8196005859375,-0.9887237548828125,0.141510009765625,0.047943115234375
1663326947338557700,0.8295576171875,-0.9884490966796875,0.11328125,0.0789031982421875
1663326947348513500,0.839513427734375,-1.00958251953125,0.05096435546875,0.0347442626953125
1663326947358470700,0.849470703125,-1.0155181884765625,-0.0288238525390625,-0.001861572265625
1663326947368427800,0.859427734375,-1.0103759765625,-0.096588134765625,0.000244140625
1663326947378383600,0.869383544921875,-0.9996490478515625,-0.09576416015625,0.0128173828125
1663326947388340700,0.8793408203125,-0.9955291748046875,-0.0699005126953125,0.0125885009765625
1663326947398297600,0.889297607421875,-1.0078887939453125,-0.0032958984375,0.007049560546875
1663326947408253700,0.899253662109375,-1.0083465576171875,0.052764892578125,0.004669189453125
1663326947418210800,0.9092109375,-1.001708984375,0.0615692138671875,0.039581298828125
1663326947428167700,0.919167724609375,-1.0009307861328125,0.04241943359375,0.0620574951171875
1663326947438123800,0.929123779296875,-0.9991912841796875,0.0225982666015625,0.0699310302734375
1663326947448080600,0.93908056640625,-1.001556396484375,0.01385498046875,0.0379486083984375
1663326947458037500,0.94903759765625,-1.0095367431640625,0.003692626953125,0.03289794921875
1663326947467993900,0.958993896484375,-1.0054779052734375,0.0110626220703125,0.0279388427734375
1663326947477950500,0.968950439453125,-0.9990692138671875,0.0140228271484375,0.058349609375
1663326947487907600,0.978907470703125,-0.998260498046875,0.005950927734375,0.0929107666015625
1663326947497864700,0.98886474609375,-1.0079345703125,-0.0043182373046875,0.080230712890625
1663326947507820500,0.998820556640625,-1.013397216796875,0.008758544921875,0.04925537109375
1663326947517777700,1.008777587890625,-1.01654052734375,0.0157623291015625,-0.00341796875
1663326947527734800,1.01873486328125,-1.0074310302734375,0.00445556640625,-0.014404296875
1663326947537690600,1.028690673828125,-0.99468994140625,0.0057830810546875,-0.006866455078125
1663326947547647700,1.038647705078125,-0.980712890625,0.0099029541015625,-0.0050506591796875
1663326947557604600,1.0486044921875,-0.98175048828125,0.009185791015625,-0.006103515625
1663326947567560700,1.058560791015625,-1.007110595703125,0.0096893310546875,-0.0093536376953125
1663326947577517800,1.068517822265625,-1.032989501953125,0.004302978515625,-0.010528564453125
1663326947587474700,1.078474609375,-1.0222320556640625,0.00030517578125,-0.011505126953125
1663326947597430800,1.0884306640625,-1.0066680908203125,0.0001220703125,-0.0082855224609375
1663326947607387600,1.0983876953125,-0.9860992431640625,0.0075531005859375,-0.005340576171875
1663326947617344500,1.108344482421875,-1.00048828125,0.0105133056640625,-0.0078887939453125
1663326947627300900,1.11830078125,-0.9990234375,0.011383056640625,-0.0086212158203125
1663326947637257500,1.128257568359375,-1.0108184814453125,0.00531005859375,-0.0082244873046875
1663326947647214600,1.138214599609375,-0.99627685546875,0.0037689208984375,-0.00836181640625
1663326947657170400,1.14817041015625,-0.998046875,0.0041351318359375,-0.0076904296875
1663326947667127600,1.15812744140625,-0.9985198974609375,0.011505126953125,-0.0067596435546875
1663326947677084700,1.168084716796875,-1.00994873046875,0.0081634521484375,-0.0081024169921875
1663326947687041500,1.17804150390625,-1.009033203125,0.0066070556640625,-0.0143890380859375
1663326947696998000,1.187997802734375,-1.0146026611328125,0.0012969970703125,-0.001220703125
1663326947706955000,1.197955078125,-1.0019378662109375,0.0074310302734375,-0.006134033203125
1663326947716911900,1.207911865234375,-1.0163726806640625,0.00640869140625,-0.012969970703125
1663326947726868000,1.217867919921875,-0.9936981201171875,0.031494140625,0.00189208984375
1663326947736824800,1.227824951171875,-1.0069580078125,0.13525390625,0.0491790771484375
1663326947746782000,1.237781982421875,-1.0308074951171875,0.0518341064453125,0.004638671875
1663326947756738000,1.247738037109375,-1.0789031982421875,-0.0566558837890625,-0.066192626953125
1663326947766695000,1.25769482421875,-1.0602569580078125,-0.022247314453125,-0.0464324951171875
1663326947776651800,1.26765185546875,-1.06610107421875,-0.0841827392578125,0.0087738037109375
1663326947786607600,1.277607666015625,-1.085174560546875,0.037353515625,-0.0933685302734375
1663326947796564700,1.287564697265625,-1.200775146484375,0.14947509765625,-0.272796630859375
1663326947806521900,1.29752197265625,-1.097930908203125,0.0475006103515625,-0.2394256591796875
1663326947816477700,1.307477783203125,-0.860443115234375,0.026580810546875,-0.0079803466796875
1663326947826434800,1.317434814453125,-1.0099639892578125,0.03076171875,0.224273681640625
1663326947836392000,1.327391845703125,-1.265777587890625,0.0799560546875,0.2741241455078125
1663326947846348800,1.337348876953125,-1.210174560546875,0.1397552490234375,0.126800537109375
1663326947856305000,1.347304931640625,-1.158233642578125,0.11773681640625,-0.1209869384765625
1663326947866262000,1.357261962890625,-1.0430908203125,0.1979522705078125,-0.370635986328125
1663326947876219000,1.367218994140625,-0.8846893310546875,0.2507171630859375,-0.4620208740234375
1663326947886175000,1.377175048828125,-0.604705810546875,0.2613067626953125,-0.5077972412109375
1663326947896131800,1.3871318359375,-0.58062744140625,0.122528076171875,-0.6099700927734375
1663326947906088700,1.397088623046875,-0.7345733642578125,0.0258941650390625,-0.42852783203125
1663326947916045000,1.407045166015625,-0.94403076171875,-0.014068603515625,-0.1510009765625
1663326947926001700,1.417001708984375,-1.1021575927734375,0.01800537109375,-0.0004730224609375
1663326947935958800,1.426958740234375,-1.095794677734375,0.0274200439453125,0.0143585205078125
1663326947945914600,1.43691455078125,-1.127166748046875,0.0823974609375,-0.004852294921875
1663326947955871700,1.446871826171875,-1.1433868408203125,0.108001708984375,-0.002899169921875
1663326947965828900,1.456828857421875,-1.12896728515625,0.089752197265625,-0.0230560302734375
1663326947975785700,1.46678564453125,-1.0937347412109375,0.1026458740234375,-0.134796142578125
1663326947985741800,1.476741943359375,-1.0103607177734375,0.1097412109375,-0.32025146484375
1663326947995699000,1.486698974609375,-0.9141082763671875,0.08465576171875,-0.43719482421875
1663326948005655800,1.49665576171875,-0.8725433349609375,0.078826904296875,-0.43536376953125
1663326948015612000,1.50661181640625,-0.8897857666015625,0.045623779296875,-0.393646240234375
1663326948025569000,1.516569091796875,-0.9770965576171875,0.0346832275390625,-0.34051513671875
1663326948035526000,1.52652587890625,-1.0771484375,0.045623779296875,-0.286407470703125
1663326948045482000,1.53648193359375,-1.135650634765625,0.0504913330078125,-0.2143096923828125
1663326948055438800,1.54643896484375,-1.1332855224609375,0.049346923828125,-0.1765899658203125
1663326948065395700,1.556395751953125,-1.063629150390625,0.1994171142578125,-0.3346405029296875
1663326948075352000,1.56635205078125,-0.9514617919921875,0.1355438232421875,-0.5244598388671875
1663326948085308700,1.57630859375,-0.9252471923828125,-0.15716552734375,-0.4286956787109375
1663326948095265800,1.586265869140625,-0.96612548828125,0.0194091796875,-0.3777313232421875
1663326948105223000,1.596222900390625,-0.93927001953125,-0.0238037109375,-0.3293914794921875
1663326948115178800,1.6061787109375,-0.8978118896484375,-0.0652923583984375,-0.274658203125
1663326948125136000,1.616135986328125,-0.8835296630859375,-0.03985595703125,-0.223785400390625
1663326948135092700,1.6260927734375,-0.8805084228515625,-0.050262451171875,-0.1741790771484375
1663326948145048800,1.636048828125,-0.898529052734375,-0.0549468994140625,-0.1104278564453125
1663326948155006000,1.646005859375,-0.93011474609375,-0.0583343505859375,-0.0981292724609375
1663326948164962800,1.655962890625,-0.9552459716796875,-0.0545196533203125,-0.1180572509765625
1663326948174919000,1.6659189453125,-0.9555816650390625,-0.051239013671875,-0.0981597900390625
1663326948184876000,1.6758759765625,-0.94287109375,-0.06158447265625,-0.03271484375
1663326948194833000,1.6858330078125,-0.9226226806640625,-0.087860107421875,0.0205230712890625
1663326948204789000,1.6957890625,-0.902252197265625,-0.0983428955078125,0.02838134765625
1663326948214745900,1.705745849609375,-0.8902435302734375,-0.1058502197265625,-0.00299072265625
1663326948224702700,1.71570263671875,-0.9194793701171875,-0.099212646484375,-0.03216552734375
1663326948234659800,1.725659912109375,-0.9812164306640625,-0.0735931396484375,-0.0499725341796875
1663326948244615700,1.73561572265625,-1.0403900146484375,-0.0762939453125,-0.057403564453125
1663326948254572800,1.74557275390625,-1.083099365234375,-0.091827392578125,-0.0540771484375
1663326948264530000,1.755530029296875,-1.111785888671875,-0.1065216064453125,-0.042327880859375
1663326948274485800,1.76548583984375,-1.1160888671875,-0.1158447265625,-0.021392822265625
1663326948284443000,1.77544287109375,-1.096923828125,-0.116424560546875,0.000213623046875
1663326948294399700,1.785399658203125,-1.0605316162109375,-0.1138916015625,0.02197265625
1663326948304355800,1.79535595703125,-1.0238494873046875,-0.107086181640625,0.033782958984375
1663326948314313000,1.80531298828125,-1.0030517578125,-0.104522705078125,0.0262451171875
1663326948324269800,1.815269775390625,-1.0081939697265625,-0.09747314453125,0.0053863525390625
1663326948334226000,1.825225830078125,-1.013916015625,-0.098175048828125,-0.021728515625
1663326948344182800,1.835182861328125,-1.011016845703125,-0.1053314208984375,-0.0614013671875
1663326948354140000,1.845139892578125,-1.01385498046875,-0.10809326171875,-0.0943756103515625
1663326948364096800,1.8550966796875,-1.02264404296875,-0.113067626953125,-0.1241912841796875
1663326948374052900,1.865052978515625,-1.0244293212890625,-0.1172943115234375,-0.14508056640625
1663326948384009700,1.875009765625,-1.0196685791015625,-0.11431884765625,-0.1568450927734375
1663326948393966800,1.884966796875,-1.0136871337890625,-0.1102752685546875,-0.1650848388671875
1663326948403922700,1.894922607421875,-1.0065765380859375,-0.0986785888671875,-0.1760711669921875
1663326948413879800,1.9048798828125,-0.988922119140625,-0.0879974365234375,-0.1865997314453125
1663326948423837000,1.9148369140625,-0.9505157470703125,-0.098968505859375,-0.19256591796875
1663326948433792800,1.924792724609375,-0.9212799072265625,-0.0915679931640625,-0.1984405517578125
1663326948443750000,1.93475,-0.909637451171875,-0.09002685546875,-0.2065887451171875
1663326948453706800,1.944706787109375,-0.912322998046875,-0.0934600830078125,-0.21875
1663326948463662800,1.954662841796875,-0.9334564208984375,-0.0894622802734375,-0.2283477783203125
1663326948473620000,1.964619873046875,-0.960662841796875,-0.0868988037109375,-0.2300567626953125
1663326948483576800,1.974576904296875,-0.98504638671875,-0.0897674560546875,-0.225555419921875
1663326948493533000,1.984532958984375,-1.000579833984375,-0.0836639404296875,-0.227081298828125
1663326948503489800,1.99448974609375,-0.9970245361328125,-0.0812225341796875,-0.2274627685546875
1663326948513447000,2.004447021484375,-0.97393798828125,-0.08172607421875,-0.2292938232421875
1663326948523403800,2.01440380859375,-0.945037841796875,-0.0743255615234375,-0.23944091796875
1663326948533359900,2.02435986328125,-0.9194488525390625,-0.069183349609375,-0.2567901611328125
1663326948543316700,2.034316650390625,-0.909210205078125,-0.0589752197265625,-0.2714080810546875
1663326948553273900,2.04427392578125,-0.9161224365234375,-0.0536041259765625,-0.280517578125
1663326948563229700,2.054229736328125,-0.926727294921875,-0.0539703369140625,-0.298309326171875
1663326948573186800,2.064186767578125,-0.934112548828125,-0.0514373779296875,-0.318328857421875
1663326948583144000,2.07414404296875,-0.9276885986328125,-0.0459747314453125,-0.3350677490234375
1663326948593099800,2.084099853515625,-0.9078216552734375,-0.0370635986328125,-0.35205078125
1663326948603057000,2.094056884765625,-0.88397216796875,-0.0333099365234375,-0.3576202392578125
1663326948613013800,2.104013671875,-0.872955322265625,-0.024658203125,-0.3544158935546875
1663326948622971000,2.113970947265625,-0.8775634765625,-0.0175018310546875,-0.3505096435546875
1663326948632927000,2.123927001953125,-0.9045562744140625,-0.0095367431640625,-0.34088134765625
1663326948642883800,2.1338837890625,-0.9458465576171875,-0.0021820068359375,-0.3343658447265625
1663326948652841000,2.143841064453125,-0.981536865234375,-0.0065460205078125,-0.3240966796875
1663326948662796800,2.153796875,-1.002838134765625,-0.0072479248046875,-0.314666748046875
1663326948672754000,2.16375390625,-1.0127716064453125,-0.0088043212890625,-0.3086700439453125
1663326948682710800,2.173710693359375,-1.0146026611328125,-0.0085296630859375,-0.3028411865234375
1663326948692667000,2.1836669921875,-1.012420654296875,-0.0060272216796875,-0.297210693359375
1663326948702624000,2.1936240234375,-1.0069427490234375,-0.0042266845703125,-0.29754638671875
1663326948712580900,2.203580810546875,-1.000701904296875,-0.0035247802734375,-0.2977447509765625
1663326948722537000,2.213536865234375,-1.001373291015625,-0.003082275390625,-0.2941436767578125
1663326948732494000,2.223494140625,-1.015899658203125,-0.0071868896484375,-0.28826904296875
1663326948742451000,2.233450927734375,-1.0387725830078125,-0.008514404296875,-0.2798919677734375
1663326948752407000,2.243406982421875,-1.04510498046875,-0.0193023681640625,-0.26898193359375
1663326948762364000,2.253364013671875,-1.0313262939453125,-0.02923583984375,-0.2667388916015625
1663326948772321000,2.263321044921875,-1.01324462890625,-0.0308074951171875,-0.2628326416015625
1663326948782278100,2.273278076171875,-0.990081787109375,-0.0338287353515625,-0.26190185546875
1663326948792234000,2.28323388671875,-0.96807861328125,-0.03741455078125,-0.2626495361328125
1663326948802191000,2.293191162109375,-0.9566650390625,-0.0420074462890625,-0.2605133056640625
1663326948812148000,2.30314794921875,-0.959686279296875,-0.044677734375,-0.2569427490234375
1663326948822104000,2.31310400390625,-0.9761962890625,-0.0440826416015625,-0.246856689453125
1663326948832061000,2.32306103515625,-0.995147705078125,-0.0526275634765625,-0.2335052490234375
1663326948842018000,2.33301806640625,-1.0075225830078125,-0.0619049072265625,-0.2223358154296875
1663326948851974000,2.342973876953125,-1.0099334716796875,-0.0687408447265625,-0.216339111328125
1663326948861931000,2.352930908203125,-1.000946044921875,-0.0756988525390625,-0.2185821533203125
1663326948871888000,2.362887939453125,-0.98895263671875,-0.0812530517578125,-0.2279205322265625
1663326948881844000,2.372843994140625,-0.9767608642578125,-0.0854644775390625,-0.2367095947265625
1663326948891801000,2.382801025390625,-0.972503662109375,-0.087799072265625,-0.2357330322265625
1663326948901758000,2.392758056640625,-0.9813079833984375,-0.093109130859375,-0.2264404296875
1663326948911714000,2.402714111328125,-0.993194580078125,-0.100189208984375,-0.2126312255859375
1663326948921671000,2.4126708984375,-0.9965057373046875,-0.1082763671875,-0.2036895751953125
1663326948931628000,2.4226279296875,-0.9881439208984375,-0.11334228515625,-0.200531005859375
1663326948941585200,2.432585205078125,-0.9716644287109375,-0.119049072265625,-0.195770263671875
1663326948951541000,2.442541015625,-0.9590606689453125,-0.12078857421875,-0.190216064453125
1663326948961498000,2.452498046875,-0.95062255859375,-0.12396240234375,-0.186798095703125
1663326948971455000,2.462455078125,-0.94720458984375,-0.13299560546875,-0.1936798095703125
1663326948981411000,2.4724111328125,-0.956024169921875,-0.1368255615234375,-0.2002105712890625
1663326948991368000,2.482367919921875,-0.9775238037109375,-0.136871337890625,-0.21142578125
1663326949001325000,2.492324951171875,-0.99713134765625,-0.139434814453125,-0.218902587890625
1663326949011281000,2.502281005859375,-1.0124053955078125,-0.1441497802734375,-0.2148284912109375
1663326949021238000,2.512238037109375,-1.01519775390625,-0.1519927978515625,-0.2119598388671875
1663326949031195000,2.52219482421875,-1.002838134765625,-0.155426025390625,-0.210479736328125
1663326949041151000,2.53215087890625,-0.9851531982421875,-0.15411376953125,-0.2059783935546875
1663326949051108000,2.542108154296875,-0.968994140625,-0.15771484375,-0.20599365234375
1663326949061065000,2.55206494140625,-0.96124267578125,-0.1575927734375,-0.19976806640625
1663326949071022000,2.56202197265625,-0.96624755859375,-0.1609039306640625,-0.199615478515625
1663326949080978000,2.57197802734375,-0.9755706787109375,-0.1666259765625,-0.2066650390625
1663326949090935000,2.58193505859375,-0.97918701171875,-0.1728057861328125,-0.20465087890625
1663326949100892200,2.59189208984375,-0.9686431884765625,-0.179595947265625,-0.2042694091796875
1663326949110848000,2.601847900390625,-0.94805908203125,-0.1825714111328125,-0.207061767578125
1663326949120805000,2.61180517578125,-0.923980712890625,-0.1869964599609375,-0.2059478759765625
1663326949130762000,2.621761962890625,-0.9038238525390625,-0.1895599365234375,-0.2031402587890625
1663326949140718000,2.631718017578125,-0.8934478759765625,-0.1898956298828125,-0.2031097412109375
1663326949150675000,2.641675048828125,-0.8946380615234375,-0.18939208984375,-0.204681396484375
1663326949160631800,2.6516318359375,-0.902313232421875,-0.192047119140625,-0.1994171142578125
1663326949170588000,2.661587890625,-0.9056549072265625,-0.1968536376953125,-0.189453125
1663326949180545000,2.671544921875,-0.8962249755859375,-0.19769287109375,-0.1802215576171875
1663326949190502000,2.681501953125,-0.876068115234375,-0.1974945068359375,-0.1808929443359375
1663326949200459000,2.691458984375,-0.8570098876953125,-0.1997833251953125,-0.185455322265625
1663326949210415000,2.7014150390625,-0.84796142578125,-0.2006378173828125,-0.1883392333984375
1663326949220372000,2.7113720703125,-0.8548736572265625,-0.2062530517578125,-0.1986083984375
1663326949230329000,2.7213291015625,-0.86907958984375,-0.2132110595703125,-0.214630126953125
1663326949240285000,2.731284912109375,-0.880401611328125,-0.216278076171875,-0.2306365966796875
1663326949250242000,2.741241943359375,-0.889190673828125,-0.2197265625,-0.24249267578125
1663326949260199200,2.75119921875,-0.892669677734375,-0.224456787109375,-0.2523651123046875
1663326949270155000,2.761155029296875,-0.891204833984375,-0.226409912109375,-0.25616455078125
1663326949280112000,2.771112060546875,-0.881256103515625,-0.22906494140625,-0.2567138671875
1663326949290069000,2.781069091796875,-0.87493896484375,-0.22900390625,-0.255767822265625
1663326949300025000,2.791025146484375,-0.881317138671875,-0.2294921875,-0.255218505859375
1663326949309982000,2.80098193359375,-0.8869476318359375,-0.2333984375,-0.259735107421875
1663326949319938800,2.810938720703125,-0.8915252685546875,-0.235687255859375,-0.272979736328125
1663326949329896000,2.82089599609375,-0.89703369140625,-0.2373046875,-0.282379150390625
1663326949339852000,2.83085205078125,-0.89617919921875,-0.2408447265625,-0.28729248046875
1663326949349809000,2.840808837890625,-0.8843536376953125,-0.244293212890625,-0.299407958984375
1663326949359766000,2.85076611328125,-0.865570068359375,-0.24627685546875,-0.3213958740234375
1663326949369722000,2.86072216796875,-0.85235595703125,-0.2487335205078125,-0.3389892578125
1663326949379679000,2.870678955078125,-0.84869384765625,-0.25201416015625,-0.3546600341796875
1663326949389636000,2.880635986328125,-0.8506622314453125,-0.2560882568359375,-0.370391845703125
1663326949399592000,2.890592041015625,-0.85247802734375,-0.2580718994140625,-0.36968994140625
1663326949409549000,2.900549072265625,-0.84393310546875,-0.2621612548828125,-0.354156494140625
1663326949419506200,2.910506103515625,-0.8112945556640625,-0.275177001953125,-0.3427581787109375
1663326949429462800,2.920462890625,-0.7603912353515625,-0.2942962646484375,-0.354736328125
1663326949439419100,2.930419189453125,-0.7046966552734375,-0.2950592041015625,-0.390167236328125
1663326949449376000,2.9403759765625,-0.643798828125,-0.2895050048828125,-0.411865234375
1663326949459332900,2.950332763671875,-0.587005615234375,-0.2824859619140625,-0.438232421875
1663326949469289000,2.9602890625,-0.5516204833984375,-0.253204345703125,-0.4690704345703125
1663326949479245800,2.970245849609375,-0.5295257568359375,-0.166900634765625,-0.5125579833984375
1663326949489203000,2.980202880859375,-0.4862060546875,-0.0832672119140625,-0.52984619140625
1663326949499159000,2.990158935546875,-0.4279937744140625,-0.4001922607421875,-0.27947998046875
1663326949509116000,3.000115966796875,-0.3645477294921875,-0.227874755859375,-0.2975921630859375
1663326949519073000,3.010072998046875,-0.30633544921875,-0.0808868408203125,-0.2998199462890625
1663326949529030100,3.020030029296875,-0.20062255859375,-0.159820556640625,-0.24615478515625
1663326949538986000,3.029986083984375,-0.0691070556640625,-0.145050048828125,-0.268310546875
1663326949548943000,3.039943115234375,0.0374298095703125,-0.0664825439453125,-0.235382080078125
1663326949558900200,3.049900146484375,0.1214141845703125,-0.020599365234375,-0.1592254638671875
1663326949568856000,3.05985595703125,0.180389404296875,0.0048980712890625,-0.087890625
1663326949578813200,3.069813232421875,0.233428955078125,-0.0122222900390625,-0.0280609130859375
1663326949588769800,3.079769775390625,0.240814208984375,-0.0391845703125,0.090789794921875
1663326949598726100,3.08972607421875,0.2176513671875,-0.0565032958984375,0.2376861572265625
1663326949608683000,3.09968310546875,0.170654296875,-0.0137786865234375,0.3368377685546875
1663326949618640000,3.109639892578125,0.14892578125,0.035919189453125,0.3668365478515625
1663326949628597000,3.119596923828125,0.1630706787109375,0.0743408203125,0.337982177734375
1663326949638552800,3.129552734375,0.166595458984375,0.09173583984375,0.2531585693359375
1663326949648510000,3.139510009765625,0.0811004638671875,0.0419464111328125,0.13116455078125
1663326949658467000,3.149467041015625,-0.1134796142578125,-0.063995361328125,0.0176849365234375
1663326949668423000,3.1594228515625,-0.362091064453125,-0.120391845703125,-0.090423583984375
1663326949678380000,3.169380126953125,-0.59771728515625,-0.0115814208984375,-0.1992034912109375
1663326949688337200,3.179337158203125,-0.6291351318359375,0.1570892333984375,-0.219207763671875
1663326949698293200,3.189293212890625,-0.454010009765625,0.2857666015625,-0.1656951904296875
1663326949708250000,3.19925,-0.28955078125,0.6319427490234375,-0.0882110595703125
1663326949718207200,3.209207275390625,-0.1148223876953125,1.0400543212890625,-0.0055389404296875
1663326949728164000,3.2191640625,0.0869598388671875,1.150848388671875,-0.117218017578125
1663326949738120200,3.2291201171875,0.1732025146484375,1.152862548828125,-0.3465423583984375
1663326949748077000,3.2390771484375,0.012542724609375,1.446014404296875,-0.383087158203125
1663326949758034000,3.249033935546875,-0.5264739990234375,1.774444580078125,-0.1222076416015625
1663326949767990000,3.258989990234375,-1.387359619140625,2.03106689453125,0.07391357421875
1663326949777947100,3.268947021484375,-2.424652099609375,2.06475830078125,-0.069122314453125
1663326949787904000,3.278904052734375,-3.4335174560546875,2.02459716796875,-0.4388885498046875
1663326949797860000,3.288860107421875,-4.200592041015625,1.7729644775390625,-0.9286041259765625
1663326949807817000,3.29881689453125,-4.6501312255859375,1.3904876708984375,-1.30810546875
1663326949817774000,3.308774169921875,-4.861480712890625,1.061431884765625,-1.377349853515625
1663326949827730200,3.318730224609375,-4.532806396484375,0.3537750244140625,-0.995269775390625
1663326949837687000,3.32868701171875,-4.0420074462890625,0.1158294677734375,-0.71075439453125
1663326949847644200,3.33864404296875,-3.3350067138671875,0.078399658203125,-0.394744873046875
1663326949857601300,3.348601318359375,-2.5492706298828125,0.018157958984375,-0.126800537109375
1663326949867557000,3.35855712890625,-1.88134765625,-0.01812744140625,0.1267852783203125
1663326949877514200,3.36851416015625,-1.3324432373046875,-0.0758514404296875,0.29058837890625
1663326949887471000,3.37847119140625,-0.92474365234375,-0.1266937255859375,0.3749847412109375
1663326949897427200,3.38842724609375,-0.657379150390625,-0.134307861328125,0.39801025390625
1663326949907384000,3.398384033203125,-0.518829345703125,-0.1725921630859375,0.335601806640625
1663326949917341000,3.4083408203125,-0.5001983642578125,-0.176971435546875,0.16925048828125
1663326949927298000,3.418298095703125,-0.62628173828125,-0.1516265869140625,-0.08404541015625
1663326949937254100,3.428254150390625,-0.85748291015625,-0.106231689453125,-0.384429931640625
1663326949947211000,3.4382109375,-1.09429931640625,-0.0254058837890625,-0.665679931640625
1663326949957168000,3.448168212890625,-1.254425048828125,0.002471923828125,-0.800567626953125
1663326949967124000,3.4581240234375,-1.32867431640625,0.06268310546875,-0.7629852294921875
1663326949977081000,3.4680810546875,-1.25,0.0916290283203125,-0.6262359619140625
1663326949987038200,3.4780380859375,-1.1077728271484375,0.069976806640625,-0.45782470703125
1663326949996994000,3.487994140625,-1.0035247802734375,0.0826263427734375,-0.2811126708984375
1663326950006951200,3.497951171875,-0.955108642578125,0.0960235595703125,-0.1218414306640625
1663326950016908300,3.507908203125,-0.9501190185546875,0.0914306640625,-0.0073394775390625
1663326950026865000,3.517864990234375,-1.0265655517578125,0.123504638671875,0.05218505859375
1663326950036821200,3.5278212890625,-1.17724609375,0.203033447265625,0.074615478515625
1663326950046778000,3.537778076171875,-1.304443359375,0.235504150390625,0.07159423828125
1663326950056735000,3.54773486328125,-1.3716278076171875,0.2421722412109375,0.0291900634765625
1663326950066691000,3.557691162109375,-1.3577423095703125,0.2806549072265625,-0.016326904296875
1663326950076648000,3.56764794921875,-1.2577056884765625,0.308746337890625,-0.0468902587890625
1663326950086605000,3.57760498046875,-1.1199798583984375,0.3062896728515625,-0.0792388916015625
1663326950096561200,3.58756103515625,-0.9803466796875,0.301513671875,-0.1252593994140625
1663326950106518000,3.59751806640625,-0.86529541015625,0.308502197265625,-0.1497802734375
1663326950116475100,3.60747509765625,-0.79339599609375,0.305633544921875,-0.1319122314453125
1663326950126432300,3.617432373046875,-0.781585693359375,0.292083740234375,-0.0884246826171875
1663326950136388000,3.62738818359375,-0.84759521484375,0.2774505615234375,-0.0479278564453125
1663326950146345200,3.63734521484375,-0.9585113525390625,0.2945709228515625,-0.0233001708984375
1663326950156302300,3.64730224609375,-1.07904052734375,0.3377532958984375,-0.013946533203125
1663326950166258200,3.657258056640625,-1.168701171875,0.34918212890625,-0.0123291015625
1663326950176215300,3.66721533203125,-1.1960296630859375,0.316680908203125,-0.031097412109375
1663326950186172000,3.677171875,-1.163726806640625,0.300933837890625,-0.059173583984375
1663326950196129000,3.68712890625,-1.0815277099609375,0.29669189453125,-0.0865631103515625
1663326950206085000,3.697085205078125,-0.984954833984375,0.2638397216796875,-0.1124114990234375
1663326950216042000,3.7070419921875,-0.93182373046875,0.22796630859375,-0.1327972412109375
1663326950225999000,3.7169990234375,-0.9593963623046875,0.2115325927734375,-0.141754150390625
1663326950235955000,3.726954833984375,-1.03070068359375,0.2049560546875,-0.1219024658203125
1663326950245912000,3.736912109375,-1.0778656005859375,0.2071990966796875,-0.107330322265625
1663326950255869200,3.746869140625,-1.085357666015625,0.214569091796875,-0.10174560546875
1663326950265825000,3.756824951171875,-1.073272705078125,0.2195892333984375,-0.0993194580078125
1663326950275782100,3.7667822265625,-1.055633544921875,0.2313995361328125,-0.10211181640625
1663326950285739300,3.7767392578125,-1.0325469970703125,0.242218017578125,-0.107666015625
1663326950295696100,3.786696044921875,-1.019439697265625,0.2421417236328125,-0.131927490234375
1663326950305652200,3.79665234375,-1.03216552734375,0.2562255859375,-0.173553466796875
1663326950315609000,3.806609130859375,-1.0557861328125,0.26300048828125,-0.201385498046875
1663326950325566000,3.81656591796875,-1.0690460205078125,0.2652587890625,-0.2042999267578125
1663326950335522000,3.82652197265625,-1.0735931396484375,0.2652740478515625,-0.1934814453125
1663326950345479000,3.83647900390625,-1.0665435791015625,0.2590484619140625,-0.17913818359375
1663326950355436000,3.84643603515625,-1.0489959716796875,0.252532958984375,-0.1768798828125
1663326950365393200,3.85639306640625,-1.030181884765625,0.25262451171875,-0.1791534423828125
1663326950375349000,3.866348876953125,-1.01239013671875,0.2532196044921875,-0.174468994140625
1663326950385306000,3.87630615234375,-0.999420166015625,0.2625885009765625,-0.1803741455078125
1663326950395263200,3.88626318359375,-0.99652099609375,0.2773284912109375,-0.2021484375
1663326950405219000,3.896218994140625,-1.005523681640625,0.285797119140625,-0.2224884033203125
1663326950415176200,3.90617626953125,-1.0290679931640625,0.2910919189453125,-0.2228240966796875
1663326950425133000,3.916133056640625,-1.064788818359375,0.2848663330078125,-0.192962646484375
1663326950435090200,3.926090087890625,-1.0911865234375,0.28656005859375,-0.1613616943359375
1663326950445046300,3.93604638671875,-1.0914306640625,0.28363037109375,-0.1406707763671875
1663326950455003100,3.946003173828125,-1.0612030029296875,0.2845458984375,-0.1248931884765625
1663326950464960000,3.9559599609375,-1.019134521484375,0.28936767578125,-0.107666015625
1663326950474916000,3.965916015625,-0.9965362548828125,0.288848876953125,-0.104736328125
1663326950484873000,3.975873046875,-0.99725341796875,0.2962493896484375,-0.11199951171875
1663326950494830000,3.985830078125,-1.0102386474609375,0.3035888671875,-0.14117431640625
1663326950504786000,3.995785888671875,-1.03411865234375,0.3069305419921875,-0.181610107421875
1663326950514743000,4.005742919921875,-1.0730438232421875,0.3165130615234375,-0.22119140625
1663326950524700200,4.0157001953125,-1.1176300048828125,0.321502685546875,-0.242462158203125
1663326950534657000,4.025656982421875,-1.1501617431640625,0.315948486328125,-0.2452545166015625
1663326950544613000,4.035613037109375,-1.1529541015625,0.3070220947265625,-0.242340087890625
1663326950554570200,4.0455703125,-1.11273193359375,0.298919677734375,-0.2322845458984375
1663326950564527000,4.055527099609375,-1.0363311767578125,0.2976226806640625,-0.19940185546875
1663326950574483200,4.065483154296875,-0.966400146484375,0.280517578125,-0.1741790771484375
1663326950584440000,4.075440185546875,-0.994903564453125,0.25439453125,-0.195220947265625
1663326950594397200,4.085397216796875,-1.13299560546875,0.27374267578125,-0.2294921875
1663326950604354000,4.09535400390625,-1.27301025390625,0.3305816650390625,-0.2503204345703125
1663326950614310100,4.10531005859375,-1.3433380126953125,0.361480712890625,-0.267578125
1663326950624267000,4.11526708984375,-1.35308837890625,0.3550872802734375,-0.285003662109375
1663326950634224000,4.12522412109375,-1.3105010986328125,0.3331146240234375,-0.2818450927734375
1663326950644180000,4.135179931640625,-1.220550537109375,0.3155517578125,-0.244720458984375
1663326950654137000,4.14513720703125,-1.1013641357421875,0.3137969970703125,-0.1876678466796875
1663326950664094200,4.15509423828125,-0.9768218994140625,0.3245086669921875,-0.1207427978515625
1663326950674051000,4.165051025390625,-0.9143524169921875,0.30902099609375,-0.0909423828125
1663326950684007200,4.175007080078125,-1.0057525634765625,0.2769012451171875,-0.121856689453125
1663326950693964000,4.184964111328125,-1.1916961669921875,0.306121826171875,-0.139007568359375
1663326950703921200,4.194921142578125,-1.3480682373046875,0.3410186767578125,-0.1542510986328125
1663326950713877000,4.204876953125,-1.41180419921875,0.371673583984375,-0.177520751953125
1663326950723834000,4.214834228515625,-1.4096221923828125,0.3810577392578125,-0.20770263671875
1663326950733791000,4.224791015625,-1.357696533203125,0.3614501953125,-0.2534942626953125
1663326950743747800,4.234747802734375,-1.250244140625,0.326202392578125,-0.3044586181640625
1663326950753704200,4.2447041015625,-1.1159210205078125,0.3136138916015625,-0.33148193359375
1663326950763660800,4.254660888671875,-1.0003509521484375,0.3271331787109375,-0.3075408935546875
1663326950773618000,4.264617919921875,-0.9113922119140625,0.3453826904296875,-0.253662109375
1663326950783573800,4.27457373046875,-0.879364013671875,0.325653076171875,-0.20465087890625
1663326950793531000,4.28453076171875,-0.98419189453125,0.2505645751953125,-0.2191314697265625
1663326950803488000,4.294488037109375,-1.222381591796875,0.2569122314453125,-0.2499542236328125
1663326950813445000,4.304445068359375,-1.444732666015625,0.3399200439453125,-0.235809326171875
1663326950823401000,4.31440087890625,-1.5375823974609375,0.3538055419921875,-0.2309112548828125
1663326950833358000,4.324358154296875,-1.500823974609375,0.3269500732421875,-0.251007080078125
1663326950843315000,4.33431494140625,-1.3865814208984375,0.313690185546875,-0.2718963623046875
1663326950853271000,4.34427099609375,-1.2375946044921875,0.2870025634765625,-0.26788330078125
1663326950863228200,4.354228271484375,-1.1066131591796875,0.29888916015625,-0.2144775390625
1663326950873185000,4.36418505859375,-1.021331787109375,0.3224945068359375,-0.129608154296875
1663326950883142000,4.374141845703125,-0.9803466796875,0.3080902099609375,-0.0596466064453125
1663326950893098000,4.384097900390625,-1.0164337158203125,0.277099609375,-0.0270843505859375
1663326950903054800,4.394054931640625,-1.135986328125,0.272186279296875,-0.023681640625
1663326950913012000,4.404011962890625,-1.254638671875,0.317474365234375,-0.0248260498046875
1663326950922967800,4.4139677734375,-1.3155975341796875,0.335693359375,-0.0205078125
1663326950932925000,4.423925048828125,-1.3011322021484375,0.3101959228515625,-0.040130615234375
1663326950942882000,4.433882080078125,-1.2191009521484375,0.27880859375,-0.0827178955078125
1663326950952839000,4.4438388671875,-1.110260009765625,0.254638671875,-0.106964111328125
1663326950962795000,4.453794921875,-1.009368896484375,0.2567291259765625,-0.1220245361328125
1663326950972752000,4.463751953125,-0.925750732421875,0.2877960205078125,-0.140289306640625
1663326950982709000,4.473708984375,-0.883148193359375,0.3020782470703125,-0.12982177734375
1663326950992665000,4.4836650390625,-0.9045257568359375,0.239898681640625,-0.0989837646484375
1663326951002622000,4.4936220703125,-0.96881103515625,0.1678619384765625,-0.0744171142578125
1663326951012579000,4.5035791015625,-1.017608642578125,0.16375732421875,-0.0619659423828125
1663326951022536000,4.513535888671875,-0.9991302490234375,0.1823272705078125,-0.058990478515625
1663326951032492000,4.523491943359375,-0.9139404296875,0.207763671875,-0.0644378662109375
1663326951042449000,4.533448974609375,-0.8016204833984375,0.2375335693359375,-0.07073974609375
1663326951052406000,4.543406005859375,-0.718536376953125,0.2294921875,-0.0844573974609375
1663326951062361900,4.55336181640625,-0.67822265625,0.2344207763671875,-0.1115570068359375
1663326951072319000,4.563319091796875,-0.6756134033203125,0.223724365234375,-0.1063690185546875
1663326951082275800,4.57327587890625,-0.703399658203125,0.1609954833984375,-0.072998046875
1663326951092233000,4.58323291015625,-0.769989013671875,0.0749359130859375,-0.0379486083984375
1663326951102189000,4.59318896484375,-0.85784912109375,0.004150390625,-0.04608154296875
1663326951112146000,4.60314599609375,-0.9060821533203125,0.040557861328125,-0.096649169921875
1663326951122103000,4.61310302734375,-0.884124755859375,0.098297119140625,-0.1377716064453125
1663326951132059000,4.623058837890625,-0.8276519775390625,0.11468505859375,-0.15228271484375
1663326951142016000,4.63301611328125,-0.7771148681640625,0.09149169921875,-0.1460113525390625
1663326951151973000,4.64297314453125,-0.75079345703125,0.0637054443359375,-0.13189697265625
1663326951161930000,4.652929931640625,-0.7365570068359375,0.0440521240234375,-0.106719970703125
1663326951171886000,4.662885986328125,-0.71868896484375,0.0072479248046875,-0.10015869140625
1663326951181843000,4.672843017578125,-0.692108154296875,-0.0201873779296875,-0.13848876953125
1663326951191799800,4.6827998046875,-0.65972900390625,-0.0384674072265625,-0.1659393310546875
1663326951201756000,4.692755859375,-0.6350555419921875,-0.06463623046875,-0.15875244140625
1663326951211713000,4.702713134765625,-0.6266632080078125,-0.078887939453125,-0.143524169921875
1663326951221670000,4.712669921875,-0.6279296875,-0.0682830810546875,-0.1257171630859375
1663326951231627000,4.722626953125,-0.6307830810546875,-0.061859130859375,-0.109527587890625
1663326951241582800,4.732582763671875,-0.634033203125,-0.086822509765625,-0.1224365234375
1663326951251540000,4.7425400390625,-0.6316070556640625,-0.1196136474609375,-0.1551513671875
1663326951261497000,4.7524970703125,-0.62274169921875,-0.145294189453125,-0.1770782470703125
1663326951271454000,4.762453857421875,-0.6141357421875,-0.169830322265625,-0.189483642578125
1663326951281410000,4.77241015625,-0.607574462890625,-0.1797332763671875,-0.201690673828125
1663326951291367200,4.7823671875,-0.599395751953125,-0.1648406982421875,-0.19854736328125
1663326951301323800,4.79232373046875,-0.590484619140625,-0.1490478515625,-0.175384521484375
1663326951311280000,4.802280029296875,-0.5813446044921875,-0.1485595703125,-0.1432952880859375
1663326951321237000,4.812237060546875,-0.58416748046875,-0.154266357421875,-0.121368408203125
1663326951331193900,4.82219384765625,-0.6051788330078125,-0.160919189453125,-0.1231689453125
1663326951341151000,4.83215087890625,-0.6340789794921875,-0.1725921630859375,-0.14794921875
1663326951351106800,4.84210693359375,-0.6624298095703125,-0.19000244140625,-0.1898956298828125
1663326951361064000,4.85206396484375,-0.6826629638671875,-0.2070465087890625,-0.2345428466796875
1663326951371021000,4.86202099609375,-0.69000244140625,-0.22601318359375,-0.25653076171875
1663326951380977000,4.871976806640625,-0.6964569091796875,-0.231109619140625,-0.2531585693359375
1663326951390934000,4.88193408203125,-0.70001220703125,-0.215301513671875,-0.2385711669921875
1663326951400891100,4.89189111328125,-0.70623779296875,-0.18878173828125,-0.2261810302734375
1663326951410848000,4.901847900390625,-0.7218475341796875,-0.1477508544921875,-0.2164306640625
1663326951420804000,4.91180419921875,-0.7422637939453125,-0.1395416259765625,-0.190460205078125
1663326951430761000,4.921760986328125,-0.76458740234375,-0.1547088623046875,-0.169036865234375
1663326951440717800,4.9317177734375,-0.788238525390625,-0.1667022705078125,-0.1595916748046875
1663326951450674200,4.941674072265625,-0.8041229248046875,-0.1688232421875,-0.1730194091796875
1663326951460630800,4.951630859375,-0.806640625,-0.165740966796875,-0.2104949951171875
1663326951470588000,4.961587890625,-0.804412841796875,-0.1609954833984375,-0.2463531494140625
1663326951480545000,4.971544921875,-0.8069610595703125,-0.151031494140625,-0.2650146484375
1663326951490500900,4.9815009765625,-0.82427978515625,-0.143524169921875,-0.265838623046875
1663326951500458000,4.9914580078125,-0.853973388671875,-0.14385986328125,-0.248687744140625
1663326951510415000,5.0014150390625,-0.886322021484375,-0.14361572265625,-0.22088623046875
1663326951520372000,5.0113720703125,-0.916412353515625,-0.1357574462890625,-0.1974639892578125
1663326951530328000,5.021328125,-0.92822265625,-0.1248931884765625,-0.183380126953125
1663326951540285000,5.031284912109375,-0.9123992919921875,-0.11962890625,-0.1727447509765625
1663326951550242000,5.041241943359375,-0.88824462890625,-0.11395263671875,-0.166839599609375
1663326951560198100,5.0511982421875,-0.8760986328125,-0.0993804931640625,-0.16583251953125
1663326951570155000,5.061155029296875,-0.8878631591796875,-0.077362060546875,-0.163299560546875
1663326951580112000,5.07111181640625,-0.9257354736328125,-0.07373046875,-0.1554107666015625
1663326951590069000,5.081069091796875,-0.980560302734375,-0.0814056396484375,-0.1399383544921875
1663326951600024800,5.09102490234375,-1.0376434326171875,-0.086090087890625,-0.1343994140625
1663326951609982000,5.10098193359375,-1.078643798828125,-0.0846099853515625,-0.147705078125
1663326951619939000,5.11093896484375,-1.093353271484375,-0.07879638671875,-0.163970947265625
1663326951629895000,5.12089501953125,-1.08966064453125,-0.0720977783203125,-0.168701171875
1663326951639852000,5.13085205078125,-1.07073974609375,-0.07684326171875,-0.160430908203125
1663326951649809000,5.140808837890625,-1.045989990234375,-0.0729827880859375,-0.1446990966796875
1663326951659766000,5.15076611328125,-1.022369384765625,-0.064453125,-0.1295623779296875
1663326951669722000,5.16072216796875,-1.004791259765625,-0.0593109130859375,-0.113067626953125
1663326951679679000,5.170678955078125,-0.9951629638671875,-0.0567626953125,-0.103546142578125
1663326951689636000,5.180635986328125,-0.9953765869140625,-0.049835205078125,-0.10833740234375
1663326951699592700,5.1905927734375,-0.9985809326171875,-0.039031982421875,-0.1191558837890625
1663326951709548800,5.200548828125,-1.0047149658203125,-0.04052734375,-0.1362152099609375
1663326951719505700,5.210505615234375,-1.0155181884765625,-0.0501861572265625,-0.15557861328125
1663326951729462500,5.220462646484375,-1.0326385498046875,-0.05389404296875,-0.176300048828125
1663326951739418600,5.230418701171875,-1.0471038818359375,-0.0490264892578125,-0.2103424072265625
1663326951749375700,5.240375732421875,-1.0516357421875,-0.052490234375,-0.2411956787109375
1663326951759332600,5.25033251953125,-1.0508270263671875,-0.0559844970703125,-0.249481201171875
1663326951769289700,5.260289794921875,-1.0462799072265625,-0.052459716796875,-0.2379608154296875
1663326951779245600,5.27024560546875,-1.0322113037109375,-0.043731689453125,-0.2241668701171875
1663326951789202700,5.28020263671875,-1.0080108642578125,-0.044189453125,-0.2026214599609375
1663326951799159800,5.290159912109375,-0.982208251953125,-0.045501708984375,-0.178619384765625
1663326951809117000,5.300116943359375,-0.9640960693359375,-0.045166015625,-0.161712646484375
1663326951819072800,5.31007275390625,-0.9530029296875,-0.04510498046875,-0.1562957763671875
1663326951829030000,5.32002978515625,-0.95343017578125,-0.0513153076171875,-0.1671905517578125
1663326951838986800,5.32998681640625,-0.9629058837890625,-0.06109619140625,-0.1824951171875
1663326951848942800,5.33994287109375,-0.974212646484375,-0.0703277587890625,-0.188995361328125
1663326951858899700,5.349899658203125,-0.98382568359375,-0.0713348388671875,-0.18255615234375
1663326951868856600,5.359856689453125,-0.983154296875,-0.0678558349609375,-0.17388916015625
1663326951878813700,5.369813720703125,-0.9730377197265625,-0.0682830810546875,-0.1685791015625
1663326951888769500,5.37976953125,-0.965576171875,-0.0743408203125,-0.1537933349609375
1663326951898726700,5.3897265625,-0.9638214111328125,-0.0705718994140625,-0.1291351318359375
1663326951908683800,5.399683837890625,-0.9587249755859375,-0.0692138671875,-0.103912353515625
1663326951918640600,5.409640625,-0.957122802734375,-0.0707855224609375,-0.08306884765625
1663326951928596700,5.4195966796875,-0.9650421142578125,-0.060546875,-0.0688323974609375
1663326951938553900,5.429553955078125,-0.97265625,-0.0560455322265625,-0.06610107421875
1663326951948510700,5.4395107421875,-0.973297119140625,-0.0562591552734375,-0.0676727294921875
1663326951958466800,5.449466796875,-0.9736328125,-0.0568084716796875,-0.0726470947265625
1663326951968423700,5.459423583984375,-0.9826507568359375,-0.059814453125,-0.0723419189453125
1663326951978380800,5.469380859375,-1.0031890869140625,-0.0611114501953125,-0.0637969970703125
1663326951988337700,5.479337646484375,-1.0249481201171875,-0.05877685546875,-0.0552215576171875
1663326951998293800,5.489293701171875,-1.0375518798828125,-0.0611419677734375,-0.0510406494140625
1663326952008250600,5.499250732421875,-1.04400634765625,-0.0567626953125,-0.04595947265625
1663326952018207700,5.509207763671875,-1.0445098876953125,-0.04254150390625,-0.02935791015625
1663326952028164600,5.51916455078125,-1.036468505859375,-0.0395965576171875,-0.00439453125
1663326952038120700,5.52912060546875,-1.02020263671875,-0.038116455078125,0.013031005859375
1663326952048077800,5.539077880859375,-1.001373291015625,-0.0397491455078125,0.0240325927734375
1663326952058034700,5.54903466796875,-0.9918365478515625,-0.04254150390625,0.025909423828125
1663326952067990800,5.55899072265625,-0.9984130859375,-0.0401611328125,0.0065765380859375
1663326952077947600,5.56894775390625,-1.0127410888671875,-0.040252685546875,-0.0334320068359375
1663326952087904800,5.57890478515625,-1.022735595703125,-0.04034423828125,-0.081787109375
1663326952097862000,5.58886181640625,-1.0332183837890625,-0.0393218994140625,-0.1235504150390625
1663326952107817700,5.598817626953125,-1.038177490234375,-0.0384368896484375,-0.14239501953125
1663326952117774800,5.60877490234375,-1.0332489013671875,-0.0397796630859375,-0.1380615234375
1663326952127731700,5.618731689453125,-1.0259857177734375,-0.038116455078125,-0.127044677734375
1663326952137687800,5.628687744140625,-1.0143890380859375,-0.0295562744140625,-0.1207733154296875
1663326952147644700,5.638644775390625,-0.9998779296875,-0.0184478759765625,-0.118255615234375
1663326952157601800,5.648601806640625,-0.9851837158203125,-0.013336181640625,-0.114593505859375
1663326952167558700,5.65855859375,-0.9823455810546875,-0.014556884765625,-0.112335205078125
1663326952177514800,5.6685146484375,-0.9925384521484375,-0.0148162841796875,-0.1186981201171875
1663326952187471600,5.6784716796875,-1.0070037841796875,-0.020233154296875,-0.127349853515625
1663326952197428700,5.6884287109375,-1.0200653076171875,-0.027435302734375,-0.134735107421875
1663326952207385900,5.6983857421875,-1.0286865234375,-0.0305938720703125,-0.13714599609375
1663326952217341700,5.708341796875,-1.033416748046875,-0.0270843505859375,-0.14031982421875
1663326952227298800,5.718298828125,-1.03387451171875,-0.02423095703125,-0.12884521484375
1663326952237256000,5.728255859375,-1.03009033203125,-0.0250244140625,-0.0966644287109375
1663326952247212500,5.738212646484375,-1.0241546630859375,-0.019500732421875,-0.0670013427734375
1663326952257169000,5.7481689453125,-1.0163726806640625,-0.02154541015625,-0.031036376953125
1663326952267125500,5.75812548828125,-1.0153961181640625,-0.02703857421875,0.0169219970703125
1663326952277082600,5.76808251953125,-1.0264129638671875,-0.02386474609375,0.069366455078125
1663326952287038700,5.778038818359375,-1.038818359375,-0.02471923828125,0.1268768310546875
1663326952296995600,5.78799560546875,-1.0484161376953125,-0.028076171875,0.1908111572265625
1663326952306952700,5.79795263671875,-1.0564727783203125,-0.0240936279296875,0.25213623046875
1663326952316909800,5.807909912109375,-1.0640106201171875,-0.02294921875,0.300201416015625
1663326952326865700,5.81786572265625,-1.0733795166015625,-0.0169219970703125,0.3477783203125
1663326952336822800,5.82782275390625,-1.082763671875,-0.009521484375,0.397705078125
1663326952346780000,5.83777978515625,-1.0868377685546875,-0.0037994384765625,0.4408111572265625
1663326952356736800,5.84773681640625,-1.089447021484375,-0.002197265625,0.49432373046875
1663326952366692900,5.85769287109375,-1.0937347412109375,-0.003570556640625,0.5450592041015625
1663326952376649700,5.867649658203125,-1.0865325927734375,-0.0001220703125,0.5800323486328125
1663326952386606600,5.877606689453125,-1.0542755126953125,0.0224151611328125,0.61505126953125
1663326952396563700,5.887563720703125,-1.014190673828125,0.0381317138671875,0.6656494140625
1663326952406519600,5.89751953125,-1.00054931640625,0.048858642578125,0.7133941650390625
1663326952416476700,5.9074765625,-1.0304107666015625,0.048828125,0.751220703125
1663326952426433800,5.917433837890625,-1.096832275390625,0.0173797607421875,0.7863006591796875
1663326952436389600,5.9273896484375,-1.1710968017578125,-0.024017333984375,0.79248046875
1663326952446346800,5.9373466796875,-1.215087890625,-0.0548553466796875,0.77734375
1663326952456303900,5.947303955078125,-1.2209625244140625,-0.08349609375,0.78057861328125
1663326952466260700,5.9572607421875,-1.195770263671875,-0.092864990234375,0.85125732421875
1663326952476216800,5.967216796875,-1.15704345703125,-0.09527587890625,0.9743499755859375
1663326952486173700,5.977173583984375,-1.108551025390625,-0.1094970703125,1.1369171142578125
1663326952496130800,5.987130859375,-1.0839996337890625,-0.070770263671875,1.30560302734375
1663326952506087700,5.997087646484375,-1.1118621826171875,0.031005859375,1.4301300048828125
1663326952516043800,6.007043701171875,-1.1904449462890625,0.1897430419921875,1.47076416015625
1663326952526000600,6.017000732421875,-1.287017822265625,0.2583465576171875,1.4020538330078125
1663326952535957800,6.026957763671875,-1.402130126953125,0.2202301025390625,1.261566162109375
1663326952545913600,6.03691357421875,-1.515960693359375,0.195404052734375,1.1181640625
1663326952555870700,6.04687060546875,-1.6121826171875,0.2509765625,1.057373046875
1663326952565827600,6.05682763671875,-1.6504974365234375,0.3193206787109375,1.0590972900390625
1663326952575784700,6.06678466796875,-1.600830078125,0.368377685546875,1.1154022216796875
1663326952585740800,6.07674072265625,-1.468475341796875,0.4856414794921875,1.210601806640625
1663326952595697700,6.08669775390625,-1.29351806640625,0.68341064453125,1.281341552734375
1663326952605654800,6.09665478515625,-1.085052490234375,0.8737945556640625,1.2664031982421875
1663326952615612000,6.10661181640625,-0.8274688720703125,1.0197296142578125,1.102996826171875
1663326952625567700,6.116567626953125,-0.624114990234375,1.149993896484375,0.8303985595703125
1663326952635524900,6.12652490234375,-0.5185546875,1.1929473876953125,0.5394439697265625
1663326952645481700,6.136481689453125,-0.5141448974609375,1.119964599609375,0.22747802734375
1663326952655437800,6.146437744140625,-0.68902587890625,1.0860748291015625,-0.079559326171875
1663326952665394700,6.156394775390625,-1.037017822265625,1.1217193603515625,-0.2734222412109375
1663326952675351600,6.1663515625,-1.360015869140625,1.0974578857421875,-0.3332366943359375
1663326952685308700,6.17630859375,-1.516815185546875,1.124908447265625,-0.339569091796875
1663326952695264800,6.1862646484375,-1.452606201171875,1.1840667724609375,-0.4150238037109375
1663326952705221600,6.1962216796875,-1.241241455078125,1.239105224609375,-0.5511322021484375
1663326952715178800,6.2061787109375,-1.0149993896484375,1.3298492431640625,-0.5998687744140625
1663326952725135600,6.216135498046875,-0.8069000244140625,1.4039459228515625,-0.511871337890625
1663326952735091700,6.226091796875,-0.6764678955078125,1.418182373046875,-0.517181396484375
1663326952745048600,6.236048583984375,-0.66845703125,1.4197235107421875,-0.6532135009765625
1663326952755005700,6.246005615234375,-0.80706787109375,1.3148345947265625,-0.7765045166015625
1663326952764962600,6.255962646484375,-1.0370635986328125,1.2409820556640625,-0.7726593017578125
1663326952774918700,6.265918701171875,-1.2354736328125,1.17352294921875,-0.644378662109375
1663326952784875500,6.27587548828125,-1.3683013916015625,1.0623626708984375,-0.475830078125
1663326952794832600,6.28583251953125,-1.46368408203125,0.9460601806640625,-0.3431854248046875
1663326952804789500,6.29578955078125,-1.5097503662109375,0.8375396728515625,-0.1938018798828125
1663326952814745600,6.30574560546875,-1.4578704833984375,0.713531494140625,-0.0177764892578125
1663326952824702700,6.31570263671875,-1.30328369140625,0.5648651123046875,0.014678955078125
1663326952834659600,6.32565966796875,-1.118438720703125,0.464508056640625,-0.13702392578125
1663326952844615700,6.33561572265625,-0.95306396484375,0.309783935546875,-0.2782745361328125
1663326952854572500,6.345572509765625,-0.8298187255859375,0.1530609130859375,-0.3707122802734375
1663326952864529700,6.35552978515625,-0.7558441162109375,0.028045654296875,-0.4291534423828125
1663326952874486800,6.36548681640625,-0.7477874755859375,-0.035247802734375,-0.40789794921875
1663326952884442600,6.375442626953125,-0.79815673828125,-0.0752105712890625,-0.312713623046875
1663326952894399700,6.385399658203125,-0.88751220703125,-0.08074951171875,-0.213714599609375
1663326952904356600,6.395356689453125,-0.984222412109375,-0.08978271484375,-0.1155853271484375
1663326952914313500,6.4053134765625,-1.052947998046875,-0.1129150390625,-0.0100860595703125
1663326952924269600,6.41526953125,-1.07470703125,-0.1130218505859375,0.0685577392578125
1663326952934226700,6.425226806640625,-1.04608154296875,-0.126708984375,0.1024627685546875
1663326952944183600,6.43518359375,-1.0025634765625,-0.125640869140625,0.096527099609375
1663326952954140700,6.445140625,-0.982635498046875,-0.101593017578125,0.104736328125
1663326952964096500,6.455096435546875,-0.99200439453125,-0.069305419921875,0.1273040771484375
1663326952974053600,6.4650537109375,-1.0125579833984375,-0.0464324951171875,0.1417236328125
1663326952984010800,6.4750107421875,-1.0352630615234375,-0.0301055908203125,0.147491455078125
1663326952993966600,6.484966552734375,-1.0531768798828125,-0.0359649658203125,0.1418304443359375
1663326953003923700,6.494923828125,-1.0591583251953125,-0.0552825927734375,0.147369384765625
1663326953013880800,6.504880859375,-1.0656890869140625,-0.0536956787109375,0.1789093017578125
1663326953023837400,6.51483740234375,-1.0489501953125,-0.0434722900390625,0.22882080078125
1663326953033793800,6.524793701171875,-1.016326904296875,-0.0437469482421875,0.27557373046875
1663326953043750400,6.53475048828125,-0.98370361328125,-0.0269622802734375,0.2811126708984375
1663326953053707500,6.54470751953125,-0.9485321044921875,-0.0224456787109375,0.2689666748046875
1663326953063664600,6.55466455078125,-0.9409332275390625,-0.0159149169921875,0.2544097900390625
1663326953073620500,6.564620361328125,-0.9620208740234375,-0.0196990966796875,0.244781494140625
1663326953083577600,6.57457763671875,-0.9836273193359375,-0.0621490478515625,0.2486572265625
1663326953093534700,6.58453466796875,-1.0096893310546875,-0.07891845703125,0.2601165771484375
1663326953103491600,6.59449169921875,-1.0414276123046875,-0.0876617431640625,0.2706146240234375
1663326953113447700,6.60444775390625,-1.061370849609375,-0.0874786376953125,0.270965576171875
1663326953123404800,6.61440478515625,-1.0626983642578125,-0.06646728515625,0.26239013671875
1663326953133361700,6.624361572265625,-1.0449981689453125,-0.051605224609375,0.2432708740234375
1663326953143318500,6.634318603515625,-1.0196685791015625,-0.0440216064453125,0.225555419921875
1663326953153274600,6.644274658203125,-1.0024566650390625,-0.0258941650390625,0.2202301025390625
1663326953163231500,6.6542314453125,-0.998077392578125,-0.0198516845703125,0.229827880859375
1663326953173188600,6.664188720703125,-1.0069732666015625,-0.0352935791015625,0.240966796875
1663326953183145500,6.6741455078125,-1.02374267578125,-0.042999267578125,0.2387847900390625
1663326953193101600,6.6841015625,-1.03948974609375,-0.0457611083984375,0.22723388671875
1663326953203058700,6.69405859375,-1.050201416015625,-0.0389556884765625,0.2164306640625
1663326953213015600,6.704015625,-1.0510711669921875,-0.0324249267578125,0.21514892578125
1663326953222972700,6.71397265625,-1.0453643798828125,-0.01446533203125,0.2120513916015625
1663326953232928800,6.7239287109375,-1.042510986328125,0.003204345703125,0.2174072265625
1663326953242885600,6.7338857421875,-1.0465545654296875,0.01165771484375,0.222991943359375
1663326953252842800,6.7438427734375,-1.064483642578125,0.0131378173828125,0.207061767578125
1663326953262798600,6.753798583984375,-1.0897216796875,0.0093994140625,0.1801910400390625
1663326953272755700,6.763755615234375,-1.1104736328125,0.004180908203125,0.1646575927734375
1663326953282712600,6.773712646484375,-1.1213531494140625,-0.007720947265625,0.164276123046875
1663326953292669400,6.78366943359375,-1.122467041015625,-0.017333984375,0.1768341064453125
1663326953302625500,6.79362548828125,-1.10992431640625,-0.0088958740234375,0.195892333984375
1663326953312582700,6.803582763671875,-1.085601806640625,0.004486083984375,0.205841064453125
1663326953322539500,6.81353955078125,-1.0551300048828125,0.0221099853515625,0.2050933837890625
1663326953332496600,6.82349658203125,-1.0294036865234375,0.03924560546875,0.2023162841796875
1663326953342452500,6.833452392578125,-1.0167083740234375,0.043121337890625,0.1876373291015625
1663326953352409600,6.84340966796875,-1.0142364501953125,0.0277099609375,0.1540985107421875
1663326953362366700,6.85336669921875,-1.01556396484375,0.0212554931640625,0.1069793701171875
1663326953372323800,6.86332373046875,-1.020416259765625,0.0176544189453125,0.069488525390625
1663326953382279700,6.87327978515625,-1.0253143310546875,0.0025177001953125,0.0696563720703125
1663326953392236800,6.88323681640625,-1.0265350341796875,-0.0063018798828125,0.1026763916015625
1663326953402193700,6.893193603515625,-1.0236358642578125,0.0066680908203125,0.14141845703125
1663326953412150500,6.903150634765625,-1.0166015625,0.03753662109375,0.174957275390625
1663326953422106600,6.913106689453125,-0.999847412109375,0.061065673828125,0.1888427734375
1663326953432063500,6.9230634765625,-0.973419189453125,0.0438232421875,0.1666259765625
1663326953442020600,6.9330205078125,-0.9508819580078125,0.0256500244140625,0.122589111328125
1663326953451977700,6.942977783203125,-0.937652587890625,0.022705078125,0.097076416015625
1663326953461933600,6.95293359375,-0.937225341796875,0.00653076171875,0.1036224365234375
1663326953471890700,6.962890625,-0.9468536376953125,-0.007049560546875,0.1462249755859375
1663326953481847600,6.97284765625,-0.9672698974609375,0.0014801025390625,0.19793701171875
1663326953491804700,6.9828046875,-0.9890289306640625,0.03607177734375,0.22210693359375
1663326953501760800,6.9927607421875,-0.9876861572265625,0.04229736328125,0.20703125
1663326953511717600,7.002717529296875,-0.9495849609375,-0.0082244873046875,0.1463623046875
1663326953521674800,7.0126748046875,-0.91082763671875,-0.0290679931640625,0.087371826171875
1663326953531631600,7.022631591796875,-0.90655517578125,-0.0276336669921875,0.0829925537109375
1663326953541587700,7.032587646484375,-0.9330291748046875,-0.0086669921875,0.08441162109375
1663326953551544600,7.042544677734375,-0.9678497314453125,-0.0048828125,0.065155029296875
1663326953561501700,7.052501708984375,-1.0152740478515625,-0.0117340087890625,0.0680694580078125
1663326953571458600,7.06245849609375,-1.07403564453125,0.0113983154296875,0.0940704345703125
1663326953581414700,7.07241455078125,-1.128509521484375,0.0551300048828125,0.11431884765625
1663326953591371500,7.08237158203125,-1.1486358642578125,0.074310302734375,0.1050262451171875
1663326953601328600,7.09232861328125,-1.1335906982421875,0.0780792236328125,0.0723419189453125
1663326953611285800,7.10228564453125,-1.09765625,0.0647430419921875,0.0447235107421875
1663326953621241600,7.11224169921875,-1.05682373046875,0.03424072265625,0.0137939453125
1663326953631198700,7.12219873046875,-1.037109375,0.0338897705078125,-0.0301971435546875
1663326953641155800,7.13215576171875,-1.0431671142578125,0.0391693115234375,-0.0394134521484375
1663326953651112400,7.142112548828125,-1.0700225830078125,0.0289459228515625,0.01300048828125
1663326953661068800,7.15206884765625,-1.1102142333984375,0.0465087890625,0.0747833251953125
1663326953671025700,7.162025634765625,-1.1349945068359375,0.0810699462890625,0.10791015625
1663326953680982500,7.171982421875,-1.11773681640625,0.0990142822265625,0.1103668212890625
1663326953690939600,7.181939697265625,-1.0592498779296875,0.1101531982421875,0.090484619140625
1663326953700895500,7.1918955078125,-0.980255126953125,0.1277008056640625,0.0604705810546875
1663326953710852400,7.201852294921875,-0.9095916748046875,0.140625,0.03765869140625
1663326953720809500,7.2118095703125,-0.8676605224609375,0.1275634765625,0.0218505859375
1663326953730766300,7.221766357421875,-0.8607940673828125,0.1138153076171875,0.0049896240234375
1663326953740722400,7.231722412109375,-0.8776702880859375,0.1134033203125,0.000030517578125
1663326953750679600,7.241679443359375,-0.90460205078125,0.127685546875,-0.0103912353515625
1663326953760636400,7.251636474609375,-0.925323486328125,0.1412811279296875,-0.03424072265625
1663326953770593300,7.26159326171875,-0.93310546875,0.1549530029296875,-0.05059814453125
1663326953780549400,7.27154931640625,-0.9306488037109375,0.15435791015625,-0.04803466796875
1663326953790506200,7.28150634765625,-0.9214935302734375,0.1356353759765625,-0.014312744140625
1663326953800463400,7.29146337890625,-0.9072113037109375,0.1259765625,0.0333404541015625
1663326953810420200,7.301420166015625,-0.913543701171875,0.11517333984375,0.087799072265625
1663326953820376300,7.311376220703125,-0.9583892822265625,0.1165313720703125,0.120025634765625
1663326953830333400,7.32133349609375,-1.0020751953125,0.1398773193359375,0.0994720458984375
1663326953840290300,7.331290283203125,-1.016815185546875,0.157379150390625,0.0148468017578125
1663326953850246400,7.341246337890625,-1.025634765625,0.1545257568359375,-0.079132080078125
1663326953860203500,7.35120361328125,-1.0534820556640625,0.156585693359375,-0.12127685546875
1663326953870160400,7.361160400390625,-1.0808868408203125,0.150177001953125,-0.0936126708984375
1663326953880117500,7.371117431640625,-1.0914154052734375,0.1106109619140625,-0.004974365234375
1663326953890073300,7.3810732421875,-1.0966949462890625,0.0824737548828125,0.1291351318359375
1663326953900030500,7.391030517578125,-1.1013336181640625,0.075927734375,0.272857666015625
1663326953909987300,7.4009873046875,-1.09686279296875,0.063720703125,0.3878173828125
1663326953919944200,7.410944091796875,-1.085723876953125,0.0510101318359375,0.45458984375
1663326953929900300,7.420900390625,-1.08123779296875,0.02410888671875,0.4723968505859375
1663326953939857400,7.430857421875,-1.109527587890625,-0.013031005859375,0.4390106201171875
1663326953949814300,7.440814208984375,-1.1591339111328125,-0.0362548828125,0.3469390869140625
1663326953959771400,7.450771484375,-1.18841552734375,-0.0324859619140625,0.2199554443359375
1663326953969727200,7.460727294921875,-1.1659393310546875,-0.01739501953125,0.0970001220703125
1663326953979684400,7.470684326171875,-1.1138458251953125,-0.0005340576171875,0.025634765625
1663326953989641500,7.480641357421875,-1.0747833251953125,-0.006439208984375,0.056121826171875
1663326953999598600,7.4905986328125,-1.057281494140625,-0.0023651123046875,0.1591644287109375
1663326954009554400,7.500554443359375,-1.053466796875,0.005035400390625,0.26397705078125
1663326954019511600,7.510511474609375,-1.048126220703125,-0.0131072998046875,0.3318328857421875
1663326954029468400,7.520468505859375,-1.0411834716796875,-0.028076171875,0.3586273193359375
1663326954039425300,7.53042529296875,-1.03912353515625,-0.03497314453125,0.348388671875
1663326954049381400,7.54038134765625,-1.0713653564453125,-0.04498291015625,0.277099609375
1663326954059338200,7.550338134765625,-1.121856689453125,-0.0467681884765625,0.18438720703125
1663326954069295400,7.56029541015625,-1.17022705078125,-0.052734375,0.1207427978515625
1663326954079252500,7.57025244140625,-1.2075653076171875,-0.0567626953125,0.1130523681640625
1663326954089208300,7.580208251953125,-1.231231689453125,-0.0618896484375,0.166229248046875
1663326954099165400,7.59016552734375,-1.218994140625,-0.0861053466796875,0.2477264404296875
1663326954109122300,7.600122314453125,-1.174285888671875,-0.1056060791015625,0.3173065185546875
1663326954119079400,7.610079345703125,-1.1203155517578125,-0.103607177734375,0.3514251708984375
1663326954129035500,7.620035400390625,-1.072418212890625,-0.103729248046875,0.360382080078125
1663326954138992400,7.629992431640625,-1.0587921142578125,-0.109222412109375,0.3574981689453125
1663326954148949500,7.639949462890625,-1.0810699462890625,-0.1158447265625,0.3393096923828125
1663326954158906400,7.64990625,-1.109954833984375,-0.1289520263671875,0.3210906982421875
1663326954168862500,7.659862548828125,-1.118377685546875,-0.1474609375,0.3091583251953125
1663326954178819300,7.6698193359375,-1.1082000732421875,-0.159881591796875,0.297882080078125
1663326954188776400,7.6797763671875,-1.0830535888671875,-0.1685791015625,0.2786712646484375
1663326954198733300,7.6897333984375,-1.043975830078125,-0.1752471923828125,0.248291015625
1663326954208689400,7.699689453125,-1.0009307861328125,-0.1668548583984375,0.2072906494140625
1663326954218646300,7.709646240234375,-0.951202392578125,-0.158599853515625,0.16571044921875
1663326954228603400,7.719603271484375,-0.9074249267578125,-0.1621856689453125,0.1378631591796875
1663326954238560500,7.729560546875,-0.88299560546875,-0.1678619384765625,0.12109375
1663326954248516400,7.739516357421875,-0.8744354248046875,-0.1687469482421875,0.1061248779296875
1663326954258473500,7.749473388671875,-0.8691864013671875,-0.1812286376953125,0.079864501953125
1663326954268430600,7.7594306640625,-0.8699188232421875,-0.184906005859375,0.038360595703125
1663326954278387200,7.76938720703125,-0.8787689208984375,-0.1761016845703125,-0.00299072265625
1663326954288343600,7.779343505859375,-0.8934783935546875,-0.169342041015625,-0.0440826416015625
1663326954298300400,7.789300537109375,-0.9153594970703125,-0.1724090576171875,-0.07476806640625
1663326954308257300,7.79925732421875,-0.94500732421875,-0.1683349609375,-0.087921142578125
1663326954318214400,7.80921435546875,-0.9686737060546875,-0.17181396484375,-0.085235595703125
1663326954328170200,7.819170166015625,-0.9722900390625,-0.1696319580078125,-0.0719451904296875
1663326954338127400,7.82912744140625,-0.9684906005859375,-0.16534423828125,-0.0540313720703125
1663326954348084500,7.83908447265625,-0.9602813720703125,-0.1645660400390625,-0.0219268798828125
1663326954358041300,7.849041259765625,-0.954193115234375,-0.1712188720703125,0.0270233154296875
1663326954367997400,7.85899755859375,-0.9509124755859375,-0.1796722412109375,0.0722198486328125
1663326954377954600,7.86895458984375,-0.9528961181640625,-0.182342529296875,0.09185791015625
1663326954387911400,7.878911376953125,-0.9525909423828125,-0.181121826171875,0.087493896484375
1663326954397868300,7.888868408203125,-0.95166015625,-0.1767578125,0.073883056640625
1663326954407824400,7.898824462890625,-0.958099365234375,-0.176727294921875,0.060516357421875
1663326954417781200,7.90878125,-0.9756011962890625,-0.1749725341796875,0.0547027587890625
1663326954427738400,7.91873828125,-1.005340576171875,-0.1666717529296875,0.06292724609375
1663326954437695500,7.928695556640625,-1.02783203125,-0.1737823486328125,0.076629638671875
1663326954447651300,7.9386513671875,-1.0296478271484375,-0.183624267578125,0.0975341796875
1663326954457608400,7.9486083984375,-1.0181884765625,-0.1778106689453125,0.1209716796875
1663326954467565300,7.9585654296875,-0.994049072265625,-0.170745849609375,0.123565673828125
1663326954477522400,7.9685224609375,-0.9686279296875,-0.1545257568359375,0.0988922119140625
1663326954487478500,7.978478515625,-0.9536590576171875,-0.1334686279296875,0.0552978515625
1663326954497435400,7.988435302734375,-0.9539337158203125,-0.1190338134765625,0.016754150390625
1663326954507392500,7.998392578125,-0.9659881591796875,-0.1135101318359375,-0.012115478515625
1663326954517349400,8.008349365234375,-0.986358642578125,-0.1125640869140625,-0.03094482421875
1663326954527305500,8.018305419921875,-1.007110595703125,-0.1095123291015625,-0.04449462890625
1663326954537262300,8.028262451171875,-1.0259552001953125,-0.109832763671875,-0.05255126953125
1663326954547219200,8.03821923828125,-1.042510986328125,-0.10137939453125,-0.06134033203125
1663326954557176300,8.04817626953125,-1.05303955078125,-0.0887603759765625,-0.073944091796875
1663326954567132400,8.05813232421875,-1.0586395263671875,-0.0762939453125,-0.077880859375
1663326954577089300,8.06808935546875,-1.0643157958984375,-0.059356689453125,-0.0757904052734375
1663326954587046400,8.07804638671875,-1.0605316162109375,-0.054901123046875,-0.076202392578125
1663326954597003500,8.08800341796875,-1.0458831787109375,-0.048614501953125,-0.091033935546875
1663326954606959400,8.09795947265625,-1.031005859375,-0.0364227294921875,-0.118621826171875
1663326954616916500,8.10791650390625,-1.0204010009765625,-0.0316925048828125,-0.138519287109375
1663326954626873600,8.11787353515625,-1.0132293701171875,-0.0319366455078125,-0.14947509765625
1663326954636830200,8.127830322265625,-1.017059326171875,-0.02655029296875,-0.1493072509765625
1663326954646786600,8.13778662109375,-1.0266571044921875,-0.0214691162109375,-0.1358489990234375
1663326954656743200,8.1477431640625,-1.04034423828125,-0.0210723876953125,-0.12274169921875
1663326954666700300,8.1577001953125,-1.056488037109375,-0.020751953125,-0.118133544921875
1663326954676657400,8.167657470703125,-1.06134033203125,-0.0199432373046875,-0.123291015625
1663326954686613200,8.17761328125,-1.05682373046875,-0.023406982421875,-0.1352386474609375
1663326954696570400,8.1875703125,-1.0500335693359375,-0.025115966796875,-0.1435546875
1663326954706528300,8.1975283203125,-1.046875,-0.0219573974609375,-0.1450042724609375
1663326954716485000,8.207485107421874,-1.0409088134765625,-0.013397216796875,-0.1446685791015625
1663326954726441200,8.217441162109376,-1.0277099609375,-0.01348876953125,-0.1360626220703125
1663326954736398300,8.2273984375,-1.0132904052734375,-0.022613525390625,-0.1181182861328125
1663326954746355000,8.23735498046875,-1.0057830810546875,-0.0270538330078125,-0.1059417724609375
1663326954756312000,8.24731201171875,-1.0012664794921875,-0.031829833984375,-0.098236083984375
1663326954766268200,8.25726806640625,-0.996673583984375,-0.0333099365234375,-0.1029052734375
1663326954776225000,8.26722509765625,-0.989990234375,-0.0351409912109375,-0.1105804443359375
1663326954786182100,8.27718212890625,-0.9835052490234375,-0.0382537841796875,-0.111968994140625
1663326954796139300,8.28713916015625,-0.9791412353515625,-0.042999267578125,-0.10943603515625
1663326954806095000,8.29709521484375,-0.9707794189453125,-0.048736572265625,-0.1049957275390625
1663326954816052200,8.30705224609375,-0.958465576171875,-0.0539703369140625,-0.11181640625
1663326954826009000,8.317009033203124,-0.9423980712890625,-0.0581817626953125,-0.1321258544921875
1663326954835966200,8.32696630859375,-0.9228973388671875,-0.0564727783203125,-0.1475830078125
1663326954845922300,8.33692236328125,-0.910888671875,-0.0477294921875,-0.15704345703125
1663326954855879200,8.346879150390626,-0.8998260498046875,-0.043182373046875,-0.1580352783203125
1663326954865836000,8.3568359375,-0.89581298828125,-0.042755126953125,-0.15411376953125
1663326954875793200,8.366793212890625,-0.9035491943359375,-0.043670654296875,-0.1383819580078125
1663326954885749000,8.3767490234375,-0.9196624755859375,-0.0479278564453125,-0.11688232421875
1663326954895706000,8.3867060546875,-0.9404449462890625,-0.0523834228515625,-0.09210205078125
1663326954905663200,8.396663330078125,-0.9591217041015625,-0.0577850341796875,-0.0647735595703125
1663326954915620000,8.4066201171875,-0.972381591796875,-0.06097412109375,-0.045257568359375
1663326954925576200,8.416576171875,-0.975921630859375,-0.05938720703125,-0.034332275390625
1663326954935533000,8.426532958984374,-0.9755096435546875,-0.0535888671875,-0.0191802978515625
1663326954945490200,8.436490234375,-0.978271484375,-0.0548553466796875,0.00469970703125
1663326954955447300,8.446447265625,-0.9879608154296875,-0.060394287109375,0.0321807861328125
1663326954965403100,8.456403076171876,-1.0058746337890625,-0.069366455078125,0.05877685546875
1663326954975360300,8.4663603515625,-1.02593994140625,-0.0790863037109375,0.0810089111328125
1663326954985317000,8.476317138671876,-1.040802001953125,-0.091278076171875,0.0899200439453125
1663326954995274000,8.48627392578125,-1.044464111328125,-0.0968475341796875,0.093414306640625
1663326955005230000,8.49622998046875,-1.0347137451171875,-0.094696044921875,0.10552978515625
1663326955015187000,8.50618701171875,-1.015655517578125,-0.0926361083984375,0.1197662353515625
1663326955025144000,8.51614404296875,-0.9980621337890625,-0.0872650146484375,0.1282196044921875
1663326955035101200,8.52610107421875,-0.9846038818359375,-0.085052490234375,0.1373443603515625
1663326955045057000,8.53605712890625,-0.9785919189453125,-0.0891876220703125,0.139007568359375
1663326955055014100,8.54601416015625,-0.9772186279296875,-0.0927886962890625,0.1206512451171875
1663326955064971300,8.55597119140625,-0.976837158203125,-0.0959625244140625,0.0938873291015625
1663326955074928000,8.56592822265625,-0.9796295166015625,-0.092315673828125,0.0840911865234375
1663326955084884200,8.57588427734375,-0.98272705078125,-0.0776519775390625,0.0830078125
1663326955094841300,8.58584130859375,-0.9805908203125,-0.066680908203125,0.0672149658203125
1663326955104798000,8.5957978515625,-0.98065185546875,-0.053924560546875,0.0331573486328125
1663326955114755000,8.605755126953126,-0.990966796875,-0.03656005859375,-0.0117340087890625
1663326955124711000,8.6157109375,-1.0124969482421875,-0.0307159423828125,-0.0561370849609375
1663326955134668000,8.62566796875,-1.0416259765625,-0.031768798828125,-0.092376708984375
1663326955144625200,8.635625244140625,-1.0714874267578125,-0.0269622802734375,-0.109283447265625
1663326955154582000,8.64558203125,-1.0969696044921875,-0.034149169921875,-0.108489990234375
1663326955164538000,8.6555380859375,-1.1164703369140625,-0.0464630126953125,-0.0951995849609375
1663326955174495200,8.6654951171875,-1.1199951171875,-0.0508880615234375,-0.07232666015625
1663326955184452000,8.6754521484375,-1.10211181640625,-0.0449066162109375,-0.052764892578125
1663326955194409200,8.6854091796875,-1.06689453125,-0.0313262939453125,-0.0470428466796875
1663326955204365300,8.695365234375,-1.028656005859375,-0.0152740478515625,-0.049774169921875
1663326955214322200,8.705322265625,-1.0026092529296875,-0.0034332275390625,-0.0496368408203125
1663326955224279000,8.715279052734376,-0.9958953857421875,0.0001373291015625,-0.05029296875
1663326955234236200,8.725236083984376,-1.0020904541015625,0.0020904541015625,-0.0635223388671875
1663326955244192000,8.73519189453125,-1.0069427490234375,-0.00189208984375,-0.0839691162109375
1663326955254149000,8.745149169921875,-1.0029754638671875,-0.009521484375,-0.091094970703125
1663326955264106000,8.75510595703125,-0.9906005859375,-0.0096588134765625,-0.0861663818359375
1663326955274063000,8.76506298828125,-0.9737548828125,-0.010467529296875,-0.076446533203125
1663326955284019200,8.775019287109375,-0.9562835693359375,-0.007537841796875,-0.0614776611328125
1663326955293976000,8.78497607421875,-0.9488983154296875,0.003692626953125,-0.0468292236328125
1663326955303933200,8.79493310546875,-0.9491729736328125,0.0131988525390625,-0.04302978515625
1663326955313890300,8.804890380859375,-0.949676513671875,0.016326904296875,-0.04559326171875
1663326955323847200,8.81484716796875,-0.9520721435546875,0.015472412109375,-0.0557098388671875
1663326955333803300,8.82480322265625,-0.956573486328125,0.014862060546875,-0.074371337890625
1663326955343760100,8.834760009765626,-0.9620208740234375,0.0120697021484375,-0.0853424072265625
1663326955353717000,8.844717041015626,-0.966339111328125,0.0139617919921875,-0.0936431884765625
1663326955363674000,8.854674072265626,-0.9691925048828125,0.0258026123046875,-0.1050872802734375
1663326955373630000,8.8646298828125,-0.9732818603515625,0.033111572265625,-0.1098480224609375
1663326955383587000,8.874587158203125,-0.987152099609375,0.0326995849609375,-0.1126708984375
1663326955393544200,8.884544189453125,-1.0094757080078125,0.0323333740234375,-0.1101226806640625
1663326955403501000,8.8945009765625,-1.0322723388671875,0.0325164794921875,-0.1031341552734375
1663326955413457200,8.90445703125,-1.0401763916015625,0.027099609375,-0.08880615234375
1663326955423414300,8.914414306640625,-1.0361480712890625,0.03045654296875,-0.08380126953125
1663326955433371100,8.92437109375,-1.0198974609375,0.0319366455078125,-0.0920867919921875
1663326955443328300,8.934328369140625,-0.998504638671875,0.036895751953125,-0.09356689453125
1663326955453284000,8.9442841796875,-0.98065185546875,0.05169677734375,-0.10009765625
1663326955463241200,8.9542412109375,-0.9689483642578125,0.061676025390625,-0.0999755859375
1663326955473198000,8.964197998046876,-0.967437744140625,0.071258544921875,-0.10040283203125
1663326955483155200,8.9741552734375,-0.98046875,0.072418212890625,-0.110809326171875
1663326955493111000,8.984111083984375,-1.005126953125,0.0601043701171875,-0.112823486328125
1663326955503068200,8.994068115234375,-1.038330078125,0.0535736083984375,-0.1040496826171875
1663326955513025000,9.00402490234375,-1.0599212646484375,0.051544189453125,-0.097564697265625
1663326955522982100,9.013982177734375,-1.054718017578125,0.0554962158203125,-0.1038360595703125
1663326955532938200,9.023938232421875,-1.0230255126953125,0.0545501708984375,-0.118316650390625
1663326955542895000,9.03389501953125,-0.9850006103515625,0.0647735595703125,-0.125274658203125
1663326955552852200,9.043852294921875,-0.955108642578125,0.0800628662109375,-0.1282196044921875
1663326955562809300,9.053809326171875,-0.9310455322265625,0.083831787109375,-0.10772705078125
1663326955572765200,9.06376513671875,-0.927642822265625,0.085052490234375,-0.07550048828125
1663326955582722300,9.073722412109374,-0.9427337646484375,0.0845794677734375,-0.0414886474609375
1663326955592679000,9.083678955078126,-0.9672088623046875,0.0826873779296875,-0.015411376953125
1663326955602636000,9.093635986328126,-0.9914398193359375,0.0775909423828125,-0.00311279296875
1663326955612592000,9.103592041015625,-1.0135345458984375,0.071746826171875,0.0096435546875
1663326955622549000,9.113549072265625,-1.0333099365234375,0.0724639892578125,0.0243682861328125
1663326955632506000,9.123506103515625,-1.0464630126953125,0.075592041015625,0.0313720703125
1663326955642463200,9.133463134765625,-1.0425567626953125,0.071990966796875,0.0530853271484375
1663326955652419000,9.143419189453125,-1.0279083251953125,0.06591796875,0.06951904296875
1663326955662376200,9.153376220703125,-1.001220703125,0.0635223388671875,0.0699462890625
1663326955672333300,9.163333251953125,-0.9659271240234375,0.06390380859375,0.055084228515625
1663326955682290200,9.173290283203125,-0.930328369140625,0.0648345947265625,0.034393310546875
1663326955692247000,9.1832470703125,-0.9023590087890625,0.0706634521484375,0.011199951171875
1663326955702203100,9.193203125,-0.893890380859375,0.069580078125,-0.00299072265625
1663326955712159500,9.203159423828126,-0.90997314453125,0.076873779296875,-0.0072784423828125
1663326955722116400,9.213116455078126,-0.9505157470703125,0.0863037109375,0.0015869140625
1663326955732073200,9.2230732421875,-0.997283935546875,0.080718994140625,0.0251312255859375
1663326955742029300,9.233029296875,-1.0358123779296875,0.071014404296875,0.0602874755859375
1663326955751986200,9.242986083984375,-1.0609130859375,0.0672454833984375,0.103363037109375
1663326955761943300,9.252943359375,-1.0700531005859375,0.0690765380859375,0.1429290771484375
1663326955771900400,9.262900390625,-1.0645294189453125,0.0664520263671875,0.16937255859375
1663326955781856300,9.272856201171875,-1.0599365234375,0.068359375,0.1752166748046875
1663326955791813400,9.2828134765625,-1.058013916015625,0.0770721435546875,0.1620635986328125
1663326955801770500,9.2927705078125,-1.0502166748046875,0.08099365234375,0.140625
1663326955811727400,9.302727294921874,-1.037628173828125,0.07708740234375,0.1221771240234375
1663326955821683500,9.312683349609374,-1.033660888671875,0.0810699462890625,0.117279052734375
1663326955831640300,9.322640380859376,-1.0357208251953125,0.0799713134765625,0.1259307861328125
1663326955841597400,9.332597412109376,-1.0381011962890625,0.079071044921875,0.1392822265625
1663326955851554300,9.34255419921875,-1.0412139892578125,0.079345703125,0.138946533203125
1663326955861510400,9.352510498046875,-1.048980712890625,0.07769775390625,0.1295928955078125
1663326955871467300,9.36246728515625,-1.0606536865234375,0.082122802734375,0.1125335693359375
1663326955881424400,9.37242431640625,-1.075103759765625,0.079437255859375,0.0972442626953125
1663326955891381200,9.38238134765625,-1.0896759033203125,0.0692291259765625,0.0822906494140625
1663326955901337300,9.39233740234375,-1.0973358154296875,0.06097412109375,0.0623779296875
1663326955911294500,9.40229443359375,-1.08831787109375,0.053253173828125,0.0416412353515625
1663326955921251300,9.412251220703125,-1.0658416748046875,0.0458984375,0.0247344970703125
1663326955931208400,9.42220849609375,-1.0372772216796875,0.051666259765625,0.0196533203125
1663326955941164300,9.432164306640624,-1.005889892578125,0.0710906982421875,0.03350830078125
1663326955951121400,9.442121337890624,-0.9808502197265625,0.08538818359375,0.060272216796875
1663326955961078500,9.45207861328125,-0.969268798828125,0.095550537109375,0.088043212890625
1663326955971035100,9.46203515625,-0.9822998046875,0.0970001220703125,0.1146087646484375
1663326955980992300,9.4719921875,-1.0115509033203125,0.089874267578125,0.129730224609375
1663326955990948400,9.4819482421875,-1.036895751953125,0.0832672119140625,0.13128662109375
1663326956000905200,9.4919052734375,-1.04656982421875,0.07330322265625,0.127349853515625
1663326956010862300,9.5018623046875,-1.0394134521484375,0.06317138671875,0.1248931884765625
1663326956020819500,9.5118193359375,-1.0151214599609375,0.0556488037109375,0.1142730712890625
1663326956030775300,9.521775390625,-0.9836273193359375,0.04595947265625,0.10894775390625
1663326956040732400,9.531732421875,-0.9560089111328125,0.0460968017578125,0.1102294921875
1663326956050689500,9.541689453125,-0.9350738525390625,0.0430450439453125,0.1135101318359375
1663326956060646400,9.551646484375,-0.925201416015625,0.035247802734375,0.124176025390625
1663326956070602500,9.5616025390625,-0.9235992431640625,0.031524658203125,0.1372222900390625
1663326956080559400,9.571559326171876,-0.915313720703125,0.022186279296875,0.14105224609375
1663326956090516200,9.58151611328125,-0.90155029296875,0.0072784423828125,0.144683837890625
1663326956100473300,9.591473388671876,-0.891632080078125,-0.0079193115234375,0.152130126953125
1663326956110429200,9.60142919921875,-0.8883514404296875,-0.0203094482421875,0.16363525390625
1663326956120386300,9.61138623046875,-0.8880157470703125,-0.03570556640625,0.1751708984375
1663326956130343400,9.621343505859375,-0.8928680419921875,-0.0479278564453125,0.1838836669921875
1663326956140300300,9.63130029296875,-0.9071197509765625,-0.0559539794921875,0.184356689453125
1663326956150256400,9.64125634765625,-0.924774169921875,-0.0645751953125,0.18206787109375
1663326956160213200,9.651213134765625,-0.9322052001953125,-0.079803466796875,0.188629150390625
1663326956170170400,9.66117041015625,-0.9320068359375,-0.09735107421875,0.2075042724609375
1663326956180127500,9.67112744140625,-0.934417724609375,-0.116180419921875,0.2399139404296875
1663326956190084400,9.68108447265625,-0.9395294189453125,-0.135467529296875,0.2798004150390625
1663326956200040400,9.69104052734375,-0.96087646484375,-0.127838134765625,0.3173828125
1663326956209997300,9.700997314453126,-1.007659912109375,-0.0955657958984375,0.3503265380859375
1663326956219954200,9.7109541015625,-1.0802459716796875,-0.10467529296875,0.4002685546875
1663326956229911300,9.720911376953126,-1.1801910400390625,-0.1179351806640625,0.45770263671875
1663326956239867400,9.730867431640625,-1.2838287353515625,-0.126251220703125,0.5262603759765625
1663326956249824300,9.74082421875,-1.3556671142578125,-0.14459228515625,0.60162353515625
1663326956259781400,9.750781494140625,-1.388427734375,-0.1643524169921875,0.660858154296875
1663326956269738500,9.760738525390625,-1.4035186767578125,-0.1892242431640625,0.6958465576171875
1663326956279694300,9.7706943359375,-1.412689208984375,-0.233856201171875,0.743194580078125
1663326956289651500,9.7806513671875,-1.446868896484375,-0.26416015625,0.8079833984375
1663326956299608300,9.7906083984375,-1.5447540283203125,-0.25030517578125,0.860687255859375
1663326956309565200,9.800565185546875,-1.6924285888671875,-0.2154998779296875,0.9109649658203125
1663326956319521500,9.810521484375,-1.8271331787109375,-0.2118988037109375,0.9741058349609375
1663326956329478100,9.82047802734375,-1.8899078369140625,-0.203826904296875,1.0279388427734375
1663326956339435300,9.830435302734376,-1.8555755615234375,-0.1773529052734375,1.0601806640625
1663326956349392400,9.840392333984376,-1.7406158447265625,-0.1949005126953125,1.102508544921875
1663326956359348200,9.85034814453125,-1.599029541015625,-0.23590087890625,1.155487060546875
1663326956369305300,9.860305419921875,-1.4762725830078125,-0.279296875,1.22283935546875
1663326956379262500,9.870262451171875,-1.400848388671875,-0.3259124755859375,1.3040618896484375
1663326956389219300,9.88021923828125,-1.3843231201171875,-0.330230712890625,1.39288330078125
1663326956399176400,9.890176513671875,-1.41998291015625,-0.2935791015625,1.4802093505859375
1663326956409132300,9.90013232421875,-1.4830169677734375,-0.253875732421875,1.5265350341796875
1663326956419089400,9.91008935546875,-1.5573883056640625,-0.218719482421875,1.5070648193359375
1663326956429046300,9.92004638671875,-1.5982208251953125,-0.2057647705078125,1.449310302734375
1663326956439003100,9.930003173828124,-1.5656890869140625,-0.2165679931640625,1.38714599609375
1663326956448959200,9.939959228515624,-1.458953857421875,-0.2326507568359375,1.3280792236328125
1663326956458916400,9.949916259765626,-1.317108154296875,-0.218994140625,1.279083251953125
1663326956468873200,9.959873291015626,-1.176605224609375,-0.154571533203125,1.226348876953125
1663326956478830300,9.969830322265626,-1.025115966796875,-0.0829620361328125,1.1654510498046875
1663326956488786400,9.979786376953125,-0.8672637939453125,0.0102386474609375,1.0989532470703125
1663326956498743300,9.989743408203125,-0.7194976806640625,0.0997467041015625,1.0285186767578125
1663326956508700400,9.999700439453125,-0.5897216796875,0.15667724609375,0.954254150390625
1663326956518657500,10.009657470703125,-0.496673583984375,0.1901092529296875,0.90802001953125
1663326956528613400,10.01961328125,-0.4479827880859375,0.2121734619140625,0.8728485107421875
1663326956538570500,10.029570556640625,-0.4572601318359375,0.238739013671875,0.8170013427734375
1663326956548527400,10.03952734375,-0.5103912353515625,0.273590087890625,0.7564239501953125
1663326956558484200,10.049484130859375,-0.560882568359375,0.2891693115234375,0.7017669677734375
1663326956568441300,10.05944140625,-0.5856781005859375,0.292694091796875,0.6416473388671875
1663326956578397200,10.069397216796874,-0.5877838134765625,0.3557586669921875,0.5603485107421875
1663326956588354300,10.079354248046876,-0.5799102783203125,0.5084381103515625,0.4321136474609375
1663326956598311400,10.0893115234375,-0.57781982421875,0.6648406982421875,0.250244140625
1663326956608268300,10.099268310546876,-0.5953521728515625,0.7397613525390625,0.0653533935546875
1663326956618224400,10.109224365234375,-0.6338958740234375,0.705535888671875,-0.0840911865234375
1663326956628181500,10.119181396484375,-0.724334716796875,0.6607513427734375,-0.1241607666015625
1663326956638138400,10.129138427734375,-0.8341064453125,0.6010894775390625,-0.030426025390625
1663326956648095500,10.139095458984375,-0.9199981689453125,0.5455780029296875,0.0501861572265625
1663326956658051300,10.14905126953125,-0.979339599609375,0.55511474609375,0.02276611328125
1663326956668008400,10.159008544921875,-0.9907684326171875,0.61932373046875,-0.0843048095703125
1663326956677965300,10.16896533203125,-0.97198486328125,0.7232818603515625,-0.2099609375
1663326956687922200,10.178922119140625,-0.950469970703125,0.8035736083984375,-0.292449951171875
1663326956697878300,10.188878173828124,-0.9024810791015625,0.72674560546875,-0.359161376953125
1663326956707836000,10.1988359375,-0.8574981689453125,0.61944580078125,-0.383880615234375
1663326956717793000,10.20879296875,-0.83074951171875,0.5589752197265625,-0.320037841796875
1663326956727750100,10.218750244140624,-0.774383544921875,0.5085906982421875,-0.2740631103515625
1663326956737707000,10.22870703125,-0.6765594482421875,0.47625732421875,-0.264404296875
1663326956747663000,10.2386630859375,-0.5530548095703125,0.440765380859375,-0.283447265625
1663326956757620200,10.2486201171875,-0.4218292236328125,0.372528076171875,-0.384735107421875
1663326956767576800,10.258576904296875,-0.3183441162109375,0.292999267578125,-0.5171051025390625
1663326956777534000,10.268533935546875,-0.2625732421875,0.2474365234375,-0.645660400390625
1663326956787490000,10.278489990234375,-0.2448883056640625,0.19952392578125,-0.7923736572265625
1663326956797447000,10.288447021484375,-0.2476959228515625,0.12371826171875,-0.90594482421875
1663326956807404000,10.298404052734375,-0.2630615234375,0.02960205078125,-0.96221923828125
1663326956817361200,10.308361083984375,-0.30609130859375,-0.029876708984375,-0.95751953125
1663326956827317000,10.31831689453125,-0.361572265625,-0.0679473876953125,-0.882965087890625
1663326956837274000,10.328274169921874,-0.4149932861328125,-0.117034912109375,-0.7835693359375
1663326956847231000,10.33823095703125,-0.46990966796875,-0.1292724609375,-0.68328857421875
1663326956857188000,10.34818798828125,-0.5262603759765625,-0.12127685546875,-0.5748291015625
1663326956867144200,10.358144287109376,-0.5675201416015625,-0.152923583984375,-0.49090576171875
1663326956877101000,10.36810107421875,-0.6019439697265625,-0.2118072509765625,-0.4712371826171875
1663326956887058000,10.378057861328125,-0.65924072265625,-0.256866455078125,-0.4908599853515625
1663326956897015000,10.38801513671875,-0.744384765625,-0.247314453125,-0.5245513916015625
1663326956906972000,10.397971923828125,-0.8403778076171875,-0.22418212890625,-0.5535430908203125
1663326956916928000,10.407927978515625,-0.9303741455078125,-0.2291717529296875,-0.55975341796875
1663326956926885000,10.417885009765625,-0.9991302490234375,-0.229705810546875,-0.5266265869140625
1663326956936842000,10.427842041015625,-1.018768310546875,-0.2127227783203125,-0.468109130859375
1663326956946799000,10.437799072265625,-0.9868621826171875,-0.2025146484375,-0.41961669921875
1663326956956755000,10.4477548828125,-0.9304962158203125,-0.20635986328125,-0.3921661376953125
1663326956966712000,10.457712158203124,-0.8889007568359375,-0.20037841796875,-0.3656768798828125
1663326956976669200,10.467669189453124,-0.8812255859375,-0.1627655029296875,-0.3198089599609375
1663326956986625800,10.477625732421876,-0.898284912109375,-0.1425628662109375,-0.2804107666015625
1663326956996582100,10.48758203125,-0.9277191162109375,-0.1295166015625,-0.238800048828125
1663326957006539000,10.4975390625,-0.9642333984375,-0.1014556884765625,-0.171051025390625
1663326957016495900,10.507495849609375,-0.9870758056640625,-0.0758819580078125,-0.109832763671875
1663326957026453000,10.517452880859375,-0.98046875,-0.076507568359375,-0.0865631103515625
1663326957036410000,10.52741015625,-0.9477996826171875,-0.10699462890625,-0.1138916015625
1663326957046366000,10.537365966796875,-0.911102294921875,-0.140472412109375,-0.1583404541015625
1663326957056323000,10.547322998046875,-0.87872314453125,-0.1884613037109375,-0.1843109130859375
1663326957066280200,10.5572802734375,-0.865753173828125,-0.1976318359375,-0.2275848388671875
1663326957076237000,10.567237060546875,-0.8888092041015625,-0.170013427734375,-0.313140869140625
1663326957086193200,10.577193115234374,-0.9427032470703125,-0.1403045654296875,-0.3684539794921875
1663326957096150000,10.58714990234375,-1.0211639404296875,-0.0890045166015625,-0.377288818359375
1663326957106107000,10.59710693359375,-1.0991973876953125,-0.041748046875,-0.3545684814453125
1663326957116064000,10.60706396484375,-1.1455535888671875,-0.0225372314453125,-0.3042449951171875
1663326957126019800,10.617019775390625,-1.1418609619140625,-0.064605712890625,-0.28936767578125
1663326957135977000,10.62697705078125,-1.091552734375,-0.1485137939453125,-0.306549072265625
1663326957145934000,10.63693408203125,-1.0220794677734375,-0.159881591796875,-0.3192901611328125
1663326957155891000,10.646890869140625,-0.94195556640625,-0.134246826171875,-0.3283538818359375
1663326957165848000,10.65684814453125,-0.8712921142578125,-0.1077880859375,-0.3178558349609375
1663326957175804000,10.666803955078125,-0.8393096923828125,-0.0695953369140625,-0.2910614013671875
1663326957185761000,10.676760986328125,-0.83880615234375,-0.0238494873046875,-0.2613067626953125
1663326957195718100,10.68671826171875,-0.8616180419921875,0.0218658447265625,-0.2522430419921875
1663326957205675000,10.696675048828125,-0.8958892822265625,0.066741943359375,-0.2738800048828125
1663326957215631000,10.706631103515624,-0.912841796875,0.076324462890625,-0.3258819580078125
1663326957225588000,10.716587890625,-0.890655517578125,-0.015960693359375,-0.3757476806640625
1663326957235544800,10.726544921875,-0.8626708984375,-0.1021881103515625,-0.370849609375
1663326957245502000,10.736501953125,-0.843902587890625,-0.1089630126953125,-0.3186187744140625
1663326957255458000,10.7464580078125,-0.80145263671875,-0.090301513671875,-0.2536163330078125
1663326957265415000,10.756414794921875,-0.7442626953125,-0.0876617431640625,-0.203521728515625
1663326957275372000,10.7663720703125,-0.70599365234375,-0.074127197265625,-0.1648712158203125
1663326957285329200,10.7763291015625,-0.6872100830078125,-0.032806396484375,-0.141204833984375
1663326957295286000,10.7862861328125,-0.6837615966796875,0.00115966796875,-0.148468017578125
1663326957305242000,10.7962421875,-0.7030181884765625,0.0364532470703125,-0.1878662109375
1663326957315199000,10.806198974609375,-0.7212982177734375,0.0459442138671875,-0.244354248046875
1663326957325156000,10.816156005859375,-0.7156219482421875,-0.051971435546875,-0.250274658203125
1663326957335113000,10.826113037109375,-0.7079925537109375,-0.120208740234375,-0.21551513671875
1663326957345069000,10.836069091796874,-0.7090606689453125,-0.1303253173828125,-0.1695709228515625
1663326957355026000,10.84602587890625,-0.7281646728515625,-0.1182708740234375,-0.117431640625
1663326957364983000,10.855983154296876,-0.7848663330078125,-0.0635223388671875,-0.0733795166015625
1663326957374940000,10.86593994140625,-0.86859130859375,-0.0176544189453125,-0.0278167724609375
1663326957384896000,10.87589599609375,-0.94403076171875,0.02008056640625,0.0054931640625
1663326957394853000,10.88585302734375,-1.0054473876953125,0.0553741455078125,0.0202484130859375
1663326957404810000,10.89581005859375,-1.0340423583984375,0.0447845458984375,0.0243377685546875
1663326957414767000,10.90576708984375,-1.0074462890625,-0.041534423828125,0.0198211669921875
1663326957424724200,10.91572412109375,-0.9343109130859375,-0.1385345458984375,0.02813720703125
1663326957434680000,10.92568017578125,-0.8471832275390625,-0.1978607177734375,0.099456787109375
1663326957444637200,10.93563720703125,-0.777252197265625,-0.200286865234375,0.1883392333984375
1663326957454593800,10.94559375,-0.74688720703125,-0.1617279052734375,0.2487945556640625
1663326957464551000,10.955551025390625,-0.7754974365234375,-0.1088409423828125,0.2649078369140625
1663326957474507000,10.965507080078124,-0.8771514892578125,-0.0427398681640625,0.2117919921875
1663326957484463900,10.9754638671875,-1.013916015625,0.002960205078125,0.1326904296875
1663326957494421000,10.9854208984375,-1.146087646484375,0.0036163330078125,0.0633087158203125
1663326957504378000,10.995378173828126,-1.2437896728515625,-0.038421630859375,-0.004730224609375
1663326957514335000,11.0053349609375,-1.290283203125,-0.125732421875,-0.052947998046875
1663326957524291000,11.015291015625,-1.2804107666015625,-0.179229736328125,-0.030670166015625
1663326957534248200,11.025248291015625,-1.2242279052734375,-0.15423583984375,0.057586669921875
1663326957544205000,11.035205078125,-1.1602783203125,-0.117706298828125,0.17474365234375
1663326957554162000,11.045161865234375,-1.1249847412109375,-0.0855712890625,0.289031982421875
1663326957564118000,11.055117919921875,-1.14898681640625,-0.071044921875,0.3335418701171875
1663326957574075000,11.065074951171875,-1.22479248046875,-0.0580902099609375,0.2806243896484375
1663326957584032000,11.075031982421875,-1.296722412109375,-0.048553466796875,0.2005615234375
1663326957593988900,11.08498876953125,-1.3283843994140625,-0.030517578125,0.116119384765625
1663326957603945000,11.094945068359374,-1.3382110595703125,-0.0531768798828125,0.03717041015625
1663326957613902000,11.104902099609374,-1.3291473388671875,-0.0892333984375,0.0574951171875
1663326957623859000,11.11485888671875,-1.36541748046875,-0.1186370849609375,0.1432647705078125
1663326957633816000,11.124816162109376,-1.4650115966796875,-0.1426544189453125,0.2294158935546875
1663326957643773200,11.134773193359376,-1.582611083984375,-0.1408538818359375,0.3035888671875
1663326957653729000,11.14472900390625,-1.65869140625,-0.1417236328125,0.3777618408203125
1663326957663686100,11.15468603515625,-1.6766204833984375,-0.1530609130859375,0.394622802734375
1663326957673643000,11.16464306640625,-1.64312744140625,-0.1713409423828125,0.3687896728515625
1663326957683600000,11.174599853515625,-1.5883636474609375,-0.185791015625,0.3243865966796875
1663326957693556000,11.184555908203125,-1.5165252685546875,-0.193145751953125,0.243621826171875
1663326957703512800,11.194512939453125,-1.436798095703125,-0.2055206298828125,0.165740966796875
1663326957713470500,11.204470458984375,-1.3688507080078125,-0.2340545654296875,0.128021240234375
1663326957723427300,11.21442724609375,-1.3287200927734375,-0.254638671875,0.106658935546875
1663326957733384400,11.224384521484374,-1.302154541015625,-0.247161865234375,0.04705810546875
1663326957743340500,11.234340576171874,-1.2825927734375,-0.2541046142578125,-0.02764892578125
1663326957753297400,11.24429736328125,-1.29473876953125,-0.25921630859375,-0.084320068359375
1663326957763254500,11.254254638671876,-1.3479461669921875,-0.254364013671875,-0.1105499267578125
1663326957773211400,11.26421142578125,-1.3858642578125,-0.26806640625,-0.1248016357421875
1663326957783167500,11.27416748046875,-1.3765716552734375,-0.2819061279296875,-0.1233062744140625
1663326957793124400,11.284124267578125,-1.346099853515625,-0.2673187255859375,-0.0933837890625
1663326957803081200,11.294081298828125,-1.3094940185546875,-0.2323760986328125,-0.06640625
1663326957813038300,11.304038330078125,-1.2527923583984375,-0.1957550048828125,-0.0665435791015625
1663326957822994400,11.313994384765625,-1.184417724609375,-0.175079345703125,-0.073089599609375
1663326957832951300,11.323951416015625,-1.1413421630859375,-0.1669464111328125,-0.0639801025390625
1663326957842908400,11.333908447265625,-1.1257476806640625,-0.1580810546875,-0.052032470703125
1663326957852865500,11.343865478515625,-1.11578369140625,-0.1591033935546875,-0.0300445556640625
1663326957862822400,11.353822509765624,-1.0959625244140625,-0.16400146484375,-0.0038299560546875
1663326957872778500,11.363778564453124,-1.057098388671875,-0.1496124267578125,0.0258941650390625
1663326957882735600,11.373735595703126,-1.003509521484375,-0.1471710205078125,0.054107666015625
1663326957892692200,11.383692138671876,-0.94268798828125,-0.159088134765625,0.0670166015625
1663326957902649300,11.3936494140625,-0.889190673828125,-0.16436767578125,0.0395660400390625
1663326957912605200,11.403605224609375,-0.8585052490234375,-0.1784210205078125,0.00274658203125
1663326957922562300,11.413562255859375,-0.8549041748046875,-0.1898651123046875,-0.024200439453125
1663326957932519400,11.42351953125,-0.872955322265625,-0.199432373046875,-0.044189453125
1663326957942476300,11.433476318359375,-0.9016265869140625,-0.21527099609375,-0.057952880859375
1663326957952433400,11.443433349609375,-0.93896484375,-0.228973388671875,-0.073486328125
1663326957962389500,11.453389404296875,-0.972869873046875,-0.2366790771484375,-0.0818023681640625
1663326957972346400,11.463346435546875,-1.005279541015625,-0.2307586669921875,-0.067169189453125
1663326957982303500,11.473303466796875,-1.02593994140625,-0.2308502197265625,-0.047271728515625
1663326957992260400,11.48326025390625,-1.0310211181640625,-0.2278289794921875,-0.032684326171875
1663326958002216400,11.493216552734374,-1.0310211181640625,-0.2105255126953125,-0.0221405029296875
1663326958012173300,11.50317333984375,-1.0274200439453125,-0.192901611328125,-0.0128021240234375
1663326958022130400,11.51313037109375,-1.0197906494140625,-0.19268798828125,-0.00665283203125
1663326958032087300,11.52308740234375,-1.0186767578125,-0.193878173828125,-0.01641845703125
1663326958042043400,11.53304345703125,-1.0341644287109375,-0.186920166015625,-0.0469970703125
1663326958052000300,11.543000244140625,-1.053924560546875,-0.1878662109375,-0.0655364990234375
1663326958061957400,11.552957275390625,-1.067596435546875,-0.1951446533203125,-0.0740814208984375
1663326958071914500,11.56291455078125,-1.068206787109375,-0.1988677978515625,-0.0810394287109375
1663326958081871400,11.572871337890625,-1.055572509765625,-0.191009521484375,-0.0819091796875
1663326958091827500,11.582827392578125,-1.0317840576171875,-0.1845855712890625,-0.0660552978515625
1663326958101784600,11.59278466796875,-1.0077362060546875,-0.1798095703125,-0.0424346923828125
1663326958111741200,11.6027412109375,-0.9864654541015625,-0.1817474365234375,-0.0316619873046875
1663326958121698300,11.6126982421875,-0.969329833984375,-0.1784515380859375,-0.04052734375
1663326958131654400,11.622654296875,-0.96337890625,-0.1776580810546875,-0.0595855712890625
1663326958141611300,11.632611328125,-0.978118896484375,-0.1785430908203125,-0.081817626953125
1663326958151568400,11.642568359375,-1.0041351318359375,-0.1802215576171875,-0.1013946533203125
1663326958161525500,11.652525390625,-1.0279693603515625,-0.1846923828125,-0.113494873046875
1663326958171482400,11.662482421875,-1.0381622314453125,-0.1918487548828125,-0.123291015625
1663326958181438500,11.6724384765625,-1.0306396484375,-0.196197509765625,-0.130462646484375
1663326958191395300,11.682395263671875,-1.0091094970703125,-0.20147705078125,-0.1294097900390625
1663326958201352400,11.6923525390625,-0.9785308837890625,-0.19775390625,-0.116607666015625
1663326958211309300,11.702309326171875,-0.9463958740234375,-0.190673828125,-0.1066741943359375
1663326958221265400,11.712265380859375,-0.92181396484375,-0.1943206787109375,-0.102020263671875
1663326958231222300,11.72222216796875,-0.91510009765625,-0.1944122314453125,-0.1056976318359375
1663326958241179400,11.732179443359374,-0.92877197265625,-0.19659423828125,-0.118408203125
1663326958251136300,11.74213623046875,-0.9576873779296875,-0.1974639892578125,-0.1371002197265625
1663326958261093400,11.75209326171875,-0.9944305419921875,-0.1960601806640625,-0.1502227783203125
1663326958271049500,11.762049560546876,-1.0200042724609375,-0.201385498046875,-0.1509552001953125
1663326958281006300,11.77200634765625,-1.0359344482421875,-0.20855712890625,-0.1458587646484375
1663326958290963500,11.78196337890625,-1.04315185546875,-0.2121429443359375,-0.1405487060546875
1663326958300920600,11.791920654296876,-1.0423583984375,-0.213897705078125,-0.1387939453125
1663326958310876400,11.80187646484375,-1.0334625244140625,-0.1984710693359375,-0.1480865478515625
1663326958320833500,11.81183349609375,-1.019378662109375,-0.1919403076171875,-0.172882080078125
1663326958330790400,11.821790283203125,-1.0142974853515625,-0.1941986083984375,-0.2060089111328125
1663326958340747300,11.831747314453125,-1.0160064697265625,-0.1954345703125,-0.22088623046875
1663326958350704400,11.841704345703125,-1.0138397216796875,-0.2001190185546875,-0.2168426513671875
1663326958360660200,11.85166015625,-1.0074462890625,-0.2050323486328125,-0.1989593505859375
1663326958370617300,11.861617431640624,-0.991424560546875,-0.2053375244140625,-0.1745452880859375
1663326958380574500,11.871574462890624,-0.9707794189453125,-0.2049713134765625,-0.15460205078125
1663326958390531300,11.88153125,-0.9501953125,-0.2038726806640625,-0.1473388671875
1663326958400487400,11.8914873046875,-0.9314727783203125,-0.1975250244140625,-0.1460723876953125
1663326958410444500,11.901444580078126,-0.9228363037109375,-0.1921234130859375,-0.1392974853515625
1663326958420401400,11.9114013671875,-0.9330902099609375,-0.19622802734375,-0.1345672607421875
1663326958430358500,11.921358642578125,-0.9549560546875,-0.1984405517578125,-0.12933349609375
1663326958440315400,11.9313154296875,-0.967010498046875,-0.203857421875,-0.1148834228515625
1663326958450271500,11.941271484375,-0.96136474609375,-0.205230712890625,-0.10870361328125
1663326958460228400,11.951228271484375,-0.9485931396484375,-0.20166015625,-0.11199951171875
1663326958470185200,11.961185302734375,-0.937744140625,-0.1971588134765625,-0.11065673828125
1663326958480142300,11.971142333984375,-0.92987060546875,-0.195465087890625,-0.107208251953125
1663326958490098400,11.981098388671874,-0.92803955078125,-0.196136474609375,-0.09930419921875
1663326958500055300,11.99105517578125,-0.9383392333984375,-0.207000732421875,-0.096893310546875
1663326958510012400,12.001012451171874,-0.952484130859375,-0.212310791015625,-0.0995941162109375
1663326958519969500,12.010969482421874,-0.9701080322265625,-0.203125,-0.1146087646484375
1663326958529926400,12.020926513671874,-0.982421875,-0.19940185546875,-0.135406494140625
1663326958539882500,12.030882568359376,-0.988372802734375,-0.206756591796875,-0.14642333984375
1663326958549839600,12.040839599609376,-0.9915618896484375,-0.2104339599609375,-0.1428680419921875
1663326958559796200,12.050796142578125,-0.9962921142578125,-0.2014617919921875,-0.1353302001953125
1663326958569753300,12.06075341796875,-0.9871826171875,-0.198577880859375,-0.134796142578125
1663326958579709200,12.070709228515625,-0.967987060546875,-0.20806884765625,-0.136444091796875
1663326958589666300,12.080666259765625,-0.9568023681640625,-0.213623046875,-0.13250732421875
1663326958599623400,12.09062353515625,-0.9572296142578125,-0.2032012939453125,-0.128509521484375
1663326958609580300,12.100580322265625,-0.954742431640625,-0.1801300048828125,-0.1296539306640625
1663326958619537400,12.110537353515625,-0.956085205078125,-0.1848907470703125,-0.1344451904296875
1663326958629493500,12.120493408203124,-0.9769134521484375,-0.2013702392578125,-0.1472625732421875
1663326958639450400,12.130450439453124,-1.0052337646484375,-0.20623779296875,-0.158050537109375
1663326958649407500,12.140407470703124,-1.02716064453125,-0.2106781005859375,-0.167266845703125
1663326958659364400,12.1503642578125,-1.0346832275390625,-0.2158966064453125,-0.17706298828125
1663326958669320400,12.160320556640626,-1.0284271240234375,-0.218841552734375,-0.1860504150390625
1663326958679277300,12.17027734375,-1.010955810546875,-0.2146453857421875,-0.190155029296875
1663326958689234400,12.180234375,-0.987579345703125,-0.2075042724609375,-0.186065673828125
1663326958699191300,12.19019140625,-0.9642486572265625,-0.206268310546875,-0.1737823486328125
1663326958709147600,12.200147705078125,-0.9427490234375,-0.21551513671875,-0.168792724609375
1663326958719103500,12.210103515625,-0.929656982421875,-0.2148895263671875,-0.170623779296875
1663326958729060600,12.220060546875,-0.9187469482421875,-0.1986846923828125,-0.172607421875
1663326958739017700,12.230017822265625,-0.9066619873046875,-0.200347900390625,-0.1736602783203125
1663326958748974600,12.239974609375,-0.9000091552734375,-0.211578369140625,-0.1826324462890625
1663326958758930700,12.2499306640625,-0.9066619873046875,-0.20343017578125,-0.1913909912109375
1663326958768887600,12.259887451171876,-0.9215087890625,-0.1948699951171875,-0.1899871826171875
1663326958778844700,12.2698447265625,-0.9393310546875,-0.19708251953125,-0.1822509765625
1663326958788801800,12.2798017578125,-0.9613037109375,-0.2003936767578125,-0.1737213134765625
1663326958798758700,12.289758544921876,-0.9785614013671875,-0.193603515625,-0.1656036376953125
1663326958808714800,12.29971484375,-0.984771728515625,-0.1944427490234375,-0.1605224609375
1663326958818671600,12.309671630859375,-0.9827423095703125,-0.201934814453125,-0.1609344482421875
1663326958828628500,12.31962841796875,-0.9793701171875,-0.2065277099609375,-0.1586456298828125
1663326958838585600,12.329585693359375,-0.9757843017578125,-0.1952056884765625,-0.1566314697265625
1663326958848541700,12.339541748046875,-0.9694366455078125,-0.191436767578125,-0.1616058349609375
1663326958858498600,12.34949853515625,-0.9653778076171875,-0.2007904052734375,-0.1660003662109375
1663326958868455700,12.35945556640625,-0.9640045166015625,-0.1997222900390625,-0.1583404541015625
1663326958878412800,12.369412841796875,-0.96044921875,-0.18768310546875,-0.1419830322265625
1663326958888369700,12.37936962890625,-0.956298828125,-0.1743316650390625,-0.129364013671875
1663326958898325800,12.38932568359375,-0.962799072265625,-0.172149658203125,-0.130218505859375
1663326958908283000,12.399282958984376,-0.9755401611328125,-0.1805877685546875,-0.1397705078125
1663326958918239500,12.409239501953126,-0.9943389892578125,-0.185546875,-0.1492767333984375
1663326958928196600,12.419196533203126,-1.01531982421875,-0.1898345947265625,-0.16192626953125
1663326958938152400,12.42915234375,-1.02899169921875,-0.1949920654296875,-0.1706085205078125
1663326958948109600,12.439109619140625,-1.028961181640625,-0.1970062255859375,-0.1710968017578125
1663326958958066700,12.449066650390625,-1.0156707763671875,-0.1903839111328125,-0.1665496826171875
1663326958968023600,12.4590234375,-0.9979248046875,-0.1890106201171875,-0.16864013671875
1663326958977980700,12.468980712890625,-0.9804840087890625,-0.1892547607421875,-0.1734161376953125
1663326958987936800,12.478936767578125,-0.9647979736328125,-0.1863555908203125,-0.1751708984375
1663326958997893600,12.4888935546875,-0.9560699462890625,-0.18603515625,-0.1744232177734375
1663326959007850800,12.498850830078124,-0.9560546875,-0.187744140625,-0.1733245849609375
1663326959017807600,12.5088076171875,-0.9583892822265625,-0.187286376953125,-0.169281005859375
1663326959027763700,12.518763671875,-0.9608154296875,-0.18975830078125,-0.16790771484375
1663326959037720600,12.528720458984376,-0.9635162353515625,-0.191986083984375,-0.16302490234375
1663326959047677700,12.538677734375,-0.9703826904296875,-0.19146728515625,-0.1566619873046875
1663326959057634600,12.548634521484376,-0.9765472412109375,-0.1898956298828125,-0.153656005859375
1663326959067591700,12.558591796875,-0.9784698486328125,-0.1878204345703125,-0.1560211181640625
1663326959077547500,12.568547607421875,-0.97821044921875,-0.1846771240234375,-0.16229248046875
1663326959087504600,12.578504638671875,-0.9799957275390625,-0.181732177734375,-0.1692352294921875
1663326959097461800,12.588461669921875,-0.982757568359375,-0.1855621337890625,-0.175384521484375
1663326959107418600,12.598418701171875,-0.9852294921875,-0.18597412109375,-0.178680419921875
1663326959117374700,12.608374755859375,-0.9866485595703125,-0.186553955078125,-0.1755218505859375
1663326959127331800,12.618331787109375,-0.9841156005859375,-0.18499755859375,-0.1646575927734375
1663326959137288400,12.628288330078124,-0.9746246337890625,-0.185211181640625,-0.1486358642578125
1663326959147245600,12.63824560546875,-0.9643707275390625,-0.1808929443359375,-0.1345977783203125
1663326959157202700,12.64820263671875,-0.959686279296875,-0.17559814453125,-0.124969482421875
1663326959167158500,12.658158447265626,-0.96368408203125,-0.1773834228515625,-0.1240081787109375
1663326959177115600,12.66811572265625,-0.9691619873046875,-0.17425537109375,-0.13250732421875
1663326959187072800,12.67807275390625,-0.9776611328125,-0.1747589111328125,-0.1474456787109375
1663326959197029600,12.688029541015625,-0.99139404296875,-0.1792449951171875,-0.157562255859375
1663326959206986800,12.69798681640625,-1.003875732421875,-0.1823883056640625,-0.1601715087890625
1663326959216942600,12.707942626953125,-1.0012359619140625,-0.18817138671875,-0.1564483642578125
1663326959226899700,12.717899658203125,-0.987518310546875,-0.191619873046875,-0.147857666015625
1663326959236856600,12.727856689453125,-0.9716796875,-0.187835693359375,-0.14434814453125
1663326959246813400,12.7378134765625,-0.9561920166015625,-0.1817626953125,-0.1491546630859375
1663326959256769500,12.74776953125,-0.9394683837890625,-0.1806488037109375,-0.15863037109375
1663326959266726700,12.7577265625,-0.9299163818359375,-0.1773223876953125,-0.16497802734375
1663326959276683500,12.76768359375,-0.93450927734375,-0.177337646484375,-0.166717529296875
1663326959286640600,12.777640625,-0.94024658203125,-0.1804351806640625,-0.165496826171875
1663326959296597800,12.78759765625,-0.945098876953125,-0.1807708740234375,-0.164794921875
1663326959306553600,12.7975537109375,-0.94671630859375,-0.179443359375,-0.1645050048828125
1663326959316510700,12.8075107421875,-0.9467315673828125,-0.1757659912109375,-0.1623992919921875
1663326959326467800,12.8174677734375,-0.947662353515625,-0.1742706298828125,-0.1637725830078125
1663326959336424700,12.8274248046875,-0.950469970703125,-0.1720733642578125,-0.1628570556640625
1663326959346380800,12.837380859375,-0.957916259765625,-0.1678619384765625,-0.1619720458984375
1663326959356337700,12.847337646484375,-0.9666290283203125,-0.167816162109375,-0.1630706787109375
1663326959366294500,12.85729443359375,-0.971649169921875,-0.1680450439453125,-0.166107177734375
1663326959376251600,12.867251708984375,-0.9736328125,-0.1644439697265625,-0.166900634765625
1663326959386208500,12.87720849609375,-0.9774932861328125,-0.166473388671875,-0.1651458740234375
1663326959396164600,12.88716455078125,-0.9847412109375,-0.1642608642578125,-0.162811279296875
1663326959406121700,12.897121826171874,-0.9908599853515625,-0.1638336181640625,-0.1637725830078125
1663326959416078600,12.90707861328125,-0.9922332763671875,-0.1679534912109375,-0.166748046875
1663326959426035700,12.91703564453125,-0.99383544921875,-0.16632080078125,-0.1671295166015625
1663326959435992800,12.926992919921876,-0.997650146484375,-0.16400146484375,-0.1678924560546875
1663326959445948700,12.93694873046875,-0.9978790283203125,-0.1698760986328125,-0.16644287109375
1663326959455905800,12.94690576171875,-0.99951171875,-0.17315673828125,-0.161346435546875
1663326959465862700,12.956862548828125,-1.001251220703125,-0.1678314208984375,-0.1568145751953125
1663326959475819500,12.966819580078125,-1.0016326904296875,-0.1680450439453125,-0.1581573486328125
1663326959485775600,12.976775634765625,-0.999114990234375,-0.170806884765625,-0.165008544921875
1663326959495732500,12.986732421875,-0.997467041015625,-0.1682586669921875,-0.1688995361328125
1663326959505689600,12.996689697265625,-1.0002593994140625,-0.1673431396484375,-0.1705780029296875
1663326959515646700,13.006646728515625,-1.0061798095703125,-0.165283203125,-0.1778411865234375
1663326959525603600,13.016603515625,-1.00775146484375,-0.1660003662109375,-0.1842803955078125
1663326959535559700,13.0265595703125,-1.0009307861328125,-0.169677734375,-0.1868896484375
1663326959545516800,13.036516845703124,-0.9967498779296875,-0.1681671142578125,-0.1847686767578125
1663326959555473700,13.0464736328125,-0.993682861328125,-0.1695709228515625,-0.1861419677734375
1663326959565430500,13.056430419921876,-0.985137939453125,-0.169677734375,-0.1878814697265625
1663326959575386600,13.06638671875,-0.9747314453125,-0.1652374267578125,-0.1887664794921875
1663326959585343500,13.076343505859375,-0.962371826171875,-0.1645660400390625,-0.185791015625
1663326959595300600,13.086300537109375,-0.9528961181640625,-0.1647796630859375,-0.1859893798828125
1663326959605257700,13.0962578125,-0.9511260986328125,-0.16253662109375,-0.188873291015625
1663326959615214600,13.106214599609375,-0.9552459716796875,-0.1625823974609375,-0.1910552978515625
1663326959625170700,13.116170654296875,-0.9593658447265625,-0.1656951904296875,-0.1871185302734375
1663326959635127600,13.12612744140625,-0.958709716796875,-0.1615447998046875,-0.180816650390625
1663326959645084700,13.136084716796875,-0.958160400390625,-0.1550750732421875,-0.17706298828125
1663326959655041800,13.146041748046875,-0.9580535888671875,-0.153076171875,-0.1744384765625
1663326959664998700,13.15599853515625,-0.9615325927734375,-0.157073974609375,-0.17474365234375
1663326959674954800,13.165954833984374,-0.9675445556640625,-0.1571044921875,-0.1748504638671875
1663326959684911600,13.17591162109375,-0.974517822265625,-0.1524810791015625,-0.17657470703125
1663326959694868500,13.185868408203126,-0.9803924560546875,-0.1517333984375,-0.1804962158203125
1663326959704825600,13.19582568359375,-0.9814910888671875,-0.15740966796875,-0.180694580078125
1663326959714781400,13.205781494140625,-0.9816131591796875,-0.1578826904296875,-0.177093505859375
1663326959724738300,13.21573828125,-0.979095458984375,-0.15142822265625,-0.1726226806640625
1663326959734695400,13.2256953125,-0.96868896484375,-0.1516571044921875,-0.1712646484375
1663326959744652500,13.235652587890625,-0.9619293212890625,-0.15447998046875,-0.16961669921875
1663326959754609700,13.245609619140625,-0.9651947021484375,-0.15277099609375,-0.1667633056640625
1663326959764565500,13.2555654296875,-0.9728240966796875,-0.1558837890625,-0.1644287109375
1663326959774522600,13.265522705078125,-0.97650146484375,-0.160552978515625,-0.1659698486328125
1663326959784479500,13.2754794921875,-0.9774932861328125,-0.1632080078125,-0.1666717529296875
1663326959794436400,13.285436279296874,-0.97930908203125,-0.16119384765625,-0.1670684814453125
1663326959804392700,13.295392822265624,-0.9813385009765625,-0.162445068359375,-0.1665802001953125
1663326959814349300,13.305349365234376,-0.9760284423828125,-0.1645050048828125,-0.1643829345703125
1663326959824306400,13.315306396484376,-0.971221923828125,-0.1633758544921875,-0.1680450439453125
1663326959834263600,13.325263671875,-0.9649658203125,-0.1574554443359375,-0.1713409423828125
1663326959844220400,13.335220458984375,-0.955413818359375,-0.1575164794921875,-0.174957275390625
1663326959854176500,13.345176513671875,-0.951416015625,-0.15740966796875,-0.1764068603515625
1663326959864133400,13.35513330078125,-0.958709716796875,-0.15582275390625,-0.1760406494140625
1663326959874090500,13.365090576171875,-0.97021484375,-0.1575469970703125,-0.1748809814453125
1663326959884047600,13.375047607421875,-0.9793701171875,-0.160003662109375,-0.1728515625
1663326959894004500,13.38500439453125,-0.9865875244140625,-0.160797119140625,-0.1703643798828125
1663326959903960600,13.394960693359375,-0.9915618896484375,-0.160552978515625,-0.16845703125
1663326959913917400,13.40491748046875,-0.993133544921875,-0.1586151123046875,-0.169921875
1663326959923874300,13.414874267578124,-0.9906158447265625,-0.156768798828125,-0.1743316650390625
1663326959933831400,13.42483154296875,-0.986297607421875,-0.152130126953125,-0.1762237548828125
1663326959943787500,13.43478759765625,-0.9803466796875,-0.149871826171875,-0.179229736328125
1663326959953744400,13.444744384765626,-0.9757232666015625,-0.152313232421875,-0.1813201904296875
1663326959963701500,13.454701416015626,-0.9763031005859375,-0.1508941650390625,-0.1776580810546875
1663326959973658600,13.46465869140625,-0.98162841796875,-0.149200439453125,-0.17303466796875
1663326959983615500,13.474615478515625,-0.98870849609375,-0.15216064453125,-0.1722564697265625
1663326959993571600,13.484571533203125,-0.9920654296875,-0.1545257568359375,-0.1688690185546875
1663326960003528400,13.494528564453125,-0.994964599609375,-0.1538543701171875,-0.1652374267578125
1663326960013485300,13.5044853515625,-0.997833251953125,-0.1519012451171875,-0.170562744140625
1663326960023442400,13.5144423828125,-0.998077392578125,-0.1524810791015625,-0.1807861328125
