time,seconds_elapsed,z,y,x
1663326947268860700,0.759860595703125,0.08216156585812569,0.445239894920215,-0.8733321095541119
1663326947278816800,0.769816650390625,0.09877192439734934,0.13831089384504594,-0.7016773197755217
1663326947288773600,0.779773681640625,-0.0815115775167942,0.29533352068904783,-0.2877326720301993
1663326947298730500,0.78973046875,-0.10621990231573582,0.6930471463352441,-0.036406790635501965
1663326947308687600,0.7996875,-0.16276304279267786,0.9202650525774806,0.4414570153806358
1663326947318643500,0.8096435546875,-0.0030780922710895537,1.2195925017409026,0.44742918512541796
1663326947328600600,0.8196005859375,0.10945698454082012,1.2925117536097763,0.584201863951981
1663326947338557700,0.8295576171875,0.11214812332093715,1.0146163840536027,0.8871369091533124
1663326947348513500,0.839513427734375,-0.09508476031720638,0.40275680744517595,0.4520920258373022
1663326947358470700,0.849470703125,-0.15330138696432113,-0.3809736859105527,0.09265318578872829
1663326947368427800,0.859427734375,-0.10288052875995636,-1.0467033478617667,0.11288850249261595
1663326947378383600,0.869383544921875,0.0023076924204826353,-1.039897759500146,0.2356324641704559
1663326947388340700,0.8793408203125,0.04272212039530277,-0.7867584994073957,0.2318139287956059
1663326947398297600,0.889297607421875,-0.07848550769388675,-0.13485891762711108,0.17642730141002683
1663326947408253700,0.899253662109375,-0.08297814293801783,0.41346090108267963,0.15201794129135085
1663326947418210800,0.9092109375,-0.017898060262203214,0.49825120800919825,0.4939774031475186
1663326947428167700,0.919167724609375,-0.010263035339117049,0.3095394119024277,0.7131357023790478
1663326947438123800,0.929123779296875,0.006812602624297142,0.1147287143986672,0.7883082130674273
1663326947448080600,0.93908056640625,-0.01637421169579029,0.02845320128253661,0.4734424550430849
1663326947458037500,0.94903759765625,-0.09463993915915489,-0.0721749454407487,0.42337749760430304
1663326947467993900,0.958993896484375,-0.0548421817779541,-0.000840140618570149,0.37430728682391345
1663326947477950500,0.968950439453125,0.007999766582250595,0.02763728178977035,0.6724843969084322
1663326947487907600,0.978907470703125,0.015931728625297546,-0.05146882375418208,1.0113409425795077
1663326947497864700,0.98886474609375,-0.07894201928973198,-0.15233639612337574,0.8871678888134658
1663326947507820500,0.998820556640625,-0.13251929569840432,-0.024503075417270884,0.5836566511593758
1663326947517777700,1.008777587890625,-0.16334873372614384,0.0432892618919257,0.06650537537173368
1663326947527734800,1.01873486328125,-0.07402268306612968,-0.06870576235968619,-0.041695225032977755
1663326947537690600,1.028690673828125,0.05092003989815712,-0.05628774094376713,0.031977338554384185
1663326947547647700,1.038647705078125,0.18799568372666833,-0.015177631455520167,0.049840683696232735
1663326947557604600,1.0486044921875,0.17783143258690834,-0.0207800728387665,0.04000109793357551
1663326947567560700,1.058560791015625,-0.0708539899021387,-0.01450073684095405,0.008449455711664632
1663326947577517800,1.068517822265625,-0.3246387813568115,-0.06725829436457716,-0.0030559169718995687
1663326947587474700,1.078474609375,-0.21915128496885297,-0.10732062096609733,-0.012937898837868124
1663326947597430800,1.0884306640625,-0.06653086600601672,-0.11007253175643272,0.01858786002411507
1663326947607387600,1.0983876953125,0.13517945481836796,-0.03734415368400514,0.04740114505700767
1663326947617344500,1.108344482421875,-0.005929390048980712,-0.008209226348157971,0.022572527479799463
1663326947627300900,1.11830078125,0.008439911565184593,0.0006765292883850634,0.015386497566383332
1663326947637257500,1.128257568359375,-0.10723170970678329,-0.05897194765959866,0.019370078176679087
1663326947647214600,1.138214599609375,0.03537701832950115,-0.07377370414058677,0.01796711604357697
1663326947657170400,1.14817041015625,0.018027824121713637,-0.06926109468750655,0.024726874235784634
1663326947667127600,1.15812744140625,0.013389058405160904,0.003770924240304157,0.034653782088868317
1663326947677084700,1.168084716796875,-0.09871931742727756,-0.029351821489538996,0.023953414778411387
1663326947687041500,1.17804150390625,-0.08970423632264136,-0.04335476487618871,-0.039849396236892785
1663326947696998000,1.187997802734375,-0.14432897595763206,-0.09562010930292308,0.0897409150712192
1663326947706955000,1.197955078125,-0.02015606832206249,-0.03657694130432792,0.04291567020602524
1663326947716911900,1.207911865234375,-0.16172551643848418,-0.04753383152596652,-0.02398716178438626
1663326947726868000,1.217867919921875,0.06058569386601448,0.19635851146765052,0.12426322540068067
1663326947736824800,1.227824951171875,-0.06960311305820942,1.2050343995563686,0.5923523641165346
1663326947746782000,1.237781982421875,-0.3039601504653692,0.36082638541683554,0.16535097692664713
1663326947756738000,1.247738037109375,-0.7762386397629976,-0.7398750215489417,-0.5293636276967824
1663326947766695000,1.25769482421875,-0.5943874501407146,-0.45011860687248406,-0.3360956295903772
1663326947776651800,1.26765185546875,-0.6536889494150877,-1.129744399968162,0.20647227452918887
1663326947786607600,1.277607666015625,-0.8441858023077249,-0.028382191006094216,-0.7782862199425696
1663326947796564700,1.287564697265625,-1.9822487524837253,1.013965299733728,-2.43686328253597
1663326947806521900,1.29752197265625,-0.979476900807023,-0.0037883228996768593,-1.9558328931145368
1663326947816477700,1.307477783203125,1.342964760518074,-0.22348858352079987,0.43888826087117194
1663326947826434800,1.317434814453125,-0.13165420330166816,-0.1926750737145543,2.8475775883242487
1663326947836392000,1.327391845703125,-2.6548890706062314,0.27633400199096647,3.5195644109740853
1663326947846348800,1.337348876953125,-2.132837373358011,0.837193751463294,2.3004878959313033
1663326947856305000,1.347304931640625,-1.657525799974799,0.5921576817946508,0.13535393460243939
1663326947866262000,1.357261962890625,-0.573668487238884,1.3495958690956233,-2.025185684673488
1663326947876219000,1.367218994140625,0.9284013780862093,1.841691696280241,-2.6471923786237834
1663326947886175000,1.377175048828125,3.631065760824084,1.9100208438798785,-2.8994103591531513
1663326947896131800,1.3871318359375,3.8393542909950016,0.5006217365328223,-3.792245333817601
1663326947906088700,1.397088623046875,2.313406121954322,-0.5009080061282962,-1.9607231493741273
1663326947916045000,1.407045166015625,0.24472996286153792,-0.9400355556480586,0.80597180698663
1663326947926001700,1.417001708984375,-1.3244260642647743,-0.6576397328674792,2.346384262448549
1663326947935958800,1.426958740234375,-1.2794815916448832,-0.5852871749706566,2.554179456144571
1663326947945914600,1.43691455078125,-1.5969646560281514,-0.0522714545071125,2.401871756392717
1663326947955871700,1.446871826171875,-1.7559616242855787,0.20895386221185325,2.4242998612999913
1663326947965828900,1.456828857421875,-1.6079834781706333,0.05356675501465797,2.2092849454835055
1663326947975785700,1.46678564453125,-1.2509691983878612,0.2186308412913233,1.081360965875536
1663326947985741800,1.476741943359375,-0.4177402589023113,0.3404384811002761,-0.7827974137566983
1663326947995699000,1.486698974609375,0.5437549950122833,0.15156915634423493,-1.9839424046590923
1663326948005655800,1.49665576171875,0.9679285018324851,0.14842362486012278,-2.019751092404127
1663326948015612000,1.50661181640625,0.8118243324071168,-0.1313311088271439,-1.6538097020611167
1663326948025569000,1.516569091796875,-0.03580079669952392,-0.1953971190895885,-1.1592103676229715
1663326948035526000,1.52652587890625,-1.0113304211854934,-0.035710488067567346,-0.6411123764365911
1663326948045482000,1.53648193359375,-1.5807564485490322,0.07962813839036971,0.06104936585500836
1663326948055438800,1.54643896484375,-1.553014455142617,0.15051336368098855,0.4250587652221322
1663326948065395700,1.556395751953125,-0.8668944777220488,1.7104031114205718,-1.1264628210142253
1663326948075352000,1.56635205078125,0.23612638516724108,1.1766906408645212,-2.992878331923485
1663326948085308700,1.57630859375,0.4974211138606071,-1.5974451330214738,-2.067890561673045
1663326948095265800,1.586265869140625,0.09418751921653747,0.2368509000495076,-1.557346492997557
1663326948105223000,1.596222900390625,0.34728900458216666,-0.08249079781249165,-1.0427755068935454
1663326948115178800,1.6061787109375,0.7410282101720571,-0.39235629986412823,-0.45935763292610643
1663326948125136000,1.616135986328125,0.8729898719877004,-0.055663215837255114,0.062618514867872
1663326948135092700,1.6260927734375,0.906473039394617,-0.08259495230671018,0.5202097226433455
1663326948145048800,1.636048828125,0.7455582548171281,-0.0692215663947165,1.0644739823520184
1663326948155006000,1.646005859375,0.45852001305818557,-0.05443634092342108,1.0697500230588017
1663326948164962800,1.655962890625,0.23620295753479004,0.02646247498989105,0.744719173644483
1663326948174919000,1.6659189453125,0.2539753455907106,0.09901497590560465,0.8170948201559484
1663326948184876000,1.6758759765625,0.3940262058377266,0.031924758983775975,1.3608768493056296
1663326948194833000,1.6858330078125,0.6020300738483667,-0.20113354384973645,1.8181128139026461
1663326948204789000,1.6957890625,0.8067021670877933,-0.29149573262445627,1.8603870443999766
1663326948214745900,1.705745849609375,0.9265899447500705,-0.3673253920473158,1.5406665763534604
1663326948224702700,1.71570263671875,0.6396814668506383,-0.316501798260957,1.2618190937042235
1663326948234659800,1.725659912109375,0.031896774998307224,-0.0842288736514747,1.109211388092488
1663326948244615700,1.73561572265625,-0.5517074153214693,-0.12736819654554127,1.0626466207943857
1663326948254572800,1.74557275390625,-0.9733359138339758,-0.2890946262994781,1.1152834014825521
1663326948264530000,1.755530029296875,-1.2569248919218778,-0.43285763893742113,1.243636079020798
1663326948274485800,1.76548583984375,-1.3013017937868834,-0.513997570130229,1.457760329607874
1663326948284443000,1.77544287109375,-1.1152899773538112,-0.501777847765386,1.6740436579249798
1663326948294399700,1.785399658203125,-0.7598831327676773,-0.4566274042446166,1.8880572877444326
1663326948304355800,1.79535595703125,-0.4010363768607378,-0.37305312204435465,2.0022296103693544
1663326948314313000,1.80531298828125,-0.19739421119093895,-0.3379496599592268,1.9260477034427224
1663326948324269800,1.815269775390625,-0.24779227304160595,-0.26496128837689753,1.7197293043009936
1663326948334226000,1.825225830078125,-0.30385902817845345,-0.27169388456754384,1.4534886436380445
1663326948344182800,1.835182861328125,-0.27560966977179047,-0.34553324695602056,1.0669922487832606
1663326948354140000,1.845139892578125,-0.30419805087447166,-0.37883974262177944,0.7505263986185192
1663326948364096800,1.8550966796875,-0.3919289412975311,-0.4340429397318512,0.4695462878547609
1663326948374052900,1.865052978515625,-0.4114660009384155,-0.4805876871552318,0.2782582845844328
1663326948384009700,1.875009765625,-0.3669154960721731,-0.455329984845221,0.17647125014960766
1663326948393966800,1.884966796875,-0.31001404367685315,-0.4184335749287158,0.10656769284009933
1663326948403922700,1.894922607421875,-0.24134616564214229,-0.30537462037317453,0.005007306768000126
1663326948413879800,1.9048798828125,-0.06850947260260581,-0.1991330176822841,-0.09718027129173278
1663326948423837000,1.9148369140625,0.3085439711242914,-0.3077591043569147,-0.15760317581146954
1663326948433792800,1.924792724609375,0.5958809035688638,-0.24310769542194902,-0.21570888943001626
1663326948443750000,1.93475,0.7102279982388019,-0.2437083647288382,-0.29071152344420553
1663326948453706800,1.944706787109375,0.6831745716184378,-0.3000109744481742,-0.39784503347352146
1663326948463662800,1.954662841796875,0.4742962588608265,-0.28796138448584824,-0.47371144471019505
1663326948473620000,1.964619873046875,0.20524901634454726,-0.29059297509845344,-0.46931408653408285
1663326948483576800,1.974576904296875,-0.03630699265599251,-0.3434271415222436,-0.40457901790365575
1663326948493533000,1.984532958984375,-0.19065292023718355,-0.3014760054994374,-0.4036559117093682
1663326948503489800,1.99448974609375,-0.15662030225396156,-0.28764190674051643,-0.4001642702013254
1663326948513447000,2.004447021484375,0.07048749467730522,-0.29735717200376094,-0.42051308461651205
1663326948523403800,2.01440380859375,0.3559650629907846,-0.22801219842508433,-0.5300242835626006
1663326948533359900,2.02435986328125,0.6096101537138223,-0.18206709739528595,-0.7132891393750905
1663326948543316700,2.034316650390625,0.7122463523238897,-0.08811375226080417,-0.8668816182404756
1663326948553273900,2.04427392578125,0.6453489910930394,-0.042641383309289814,-0.9590323709324001
1663326948563229700,2.054229736328125,0.5404273118942976,-0.052518926462158555,-1.126875785729289
1663326948573186800,2.064186767578125,0.46532034072279926,-0.030857422013208267,-1.3080674885295331
1663326948583144000,2.07414404296875,0.5247451741158962,0.023166575249657033,-1.453473592199385
1663326948593099800,2.084099853515625,0.71623688326478,0.11273732138574123,-1.6031486053600907
1663326948603057000,2.094056884765625,0.9474562071681022,0.14956775339394807,-1.6439685453958808
1663326948613013800,2.104013671875,1.053534070664644,0.2299252289721742,-1.6013178828015922
1663326948622971000,2.113970947265625,1.0065075310736895,0.2904665357071906,-1.5512283023782074
1663326948632927000,2.123927001953125,0.7393634918302298,0.35514296948555857,-1.44122055208683
1663326948642883800,2.1338837890625,0.3308703692227602,0.4143459402889013,-1.3563776381902395
1663326948652841000,2.143841064453125,-0.023689503145217894,0.36219204774685204,-1.2309680283665656
1663326948662796800,2.153796875,-0.23793431137204168,0.35071043039821087,-1.1113045609794556
1663326948672754000,2.16375390625,-0.34097324556410313,0.33579511227384207,-1.025426312685758
1663326948682710800,2.173710693359375,-0.3641138826549053,0.34316600636802613,-0.9445628238141536
1663326948692667000,2.1836669921875,-0.3470557803481817,0.3759668175339699,-0.8706535379946231
1663326948702624000,2.1936240234375,-0.29655893429815766,0.40509222812280055,-0.8613508721202612
1663326948712580900,2.203580810546875,-0.2373240705192089,0.42540019907094534,-0.8571054896354675
1663326948722537000,2.213536865234375,-0.2449830608397722,0.44442704416736956,-0.8201295116767287
1663326948732494000,2.223494140625,-0.3881120133578777,0.4209441329775378,-0.7633155914343893
1663326948742451000,2.233450927734375,-0.6134031162559985,0.4302697778686881,-0.68204206045717
1663326948752407000,2.243406982421875,-0.6772527803540229,0.35386520463470367,-0.5744581763118505
1663326948762364000,2.253364013671875,-0.544438301101327,0.2912064673542976,-0.5511952280156314
1663326948772321000,2.263321044921875,-0.36969314409196374,0.31403679638691245,-0.5120109263576567
1663326948782278100,2.273278076171875,-0.14482348147630691,0.3233682499643415,-0.5043151111580431
1663326948792234000,2.28323388671875,0.0693161128103733,0.32565299990065394,-0.5162902111120522
1663326948802191000,2.293191162109375,0.18014087857306002,0.31540377389118074,-0.5022197463139891
1663326948812148000,2.30314794921875,0.14963058949708938,0.32146365845203395,-0.47478901081383224
1663326948822104000,2.31310400390625,-0.013527590093016623,0.35876667640805243,-0.3819742412552237
1663326948832061000,2.32306103515625,-0.20156711296141147,0.30784561359658835,-0.25379735867530107
1663326948842018000,2.33301806640625,-0.3259983792722225,0.25221169691905376,-0.14444105802997945
1663326948851974000,2.342973876953125,-0.35333646805286406,0.22291553287319837,-0.08457228026166558
1663326948861931000,2.352930908203125,-0.26921149316728116,0.19425167538151145,-0.105577074367553
1663326948871888000,2.362887939453125,-0.15566051731109617,0.18001425651870667,-0.19700652704760432
1663326948881844000,2.372843994140625,-0.040108723026514054,0.17821224859803914,-0.28374752965047956
1663326948891801000,2.382801025390625,-0.0026326865911483763,0.19307298699095843,-0.2733537075385451
1663326948901758000,2.392758056640625,-0.09359247593283652,0.17796053885929286,-0.18007292790338397
1663326948911714000,2.402714111328125,-0.21538754852116107,0.14670242709070444,-0.0410183852173388
1663326948921671000,2.4126708984375,-0.25382220085561275,0.10743059327974915,0.05193023985400796
1663326948931628000,2.4226279296875,-0.17808803769648074,0.09836721605397761,0.088421795296669
1663326948941585200,2.432585205078125,-0.02260346147418022,0.08162453637197613,0.139977064358443
1663326948951541000,2.442541015625,0.09530103341639042,0.10025617160573601,0.19876812989264725
1663326948961498000,2.452498046875,0.17269816135168076,0.10054258733168243,0.23711831881403922
1663326948971455000,2.462455078125,0.20093290671110153,0.038332653264701366,0.1769157790467143
1663326948981411000,2.4724111328125,0.10862637893557547,0.023212679413706062,0.1247787645742297
1663326948991368000,2.482367919921875,-0.10863105511069297,0.04345554923638701,0.03025119974836707
1663326949001325000,2.492324951171875,-0.3079156100928783,0.0399909418657422,-0.02600435595884919
1663326949011281000,2.502281005859375,-0.46553895190954203,0.018800854320824144,0.03208031487166881
1663326949021238000,2.512238037109375,-0.5016244107693434,-0.02896656676530838,0.07889438075572251
1663326949031195000,2.52219482421875,-0.3896551511466503,-0.030362697298824785,0.11168518198430538
1663326949041151000,2.53215087890625,-0.22564123151004314,0.015956570805609225,0.1733884817034006
1663326949051108000,2.542108154296875,-0.07643617394864559,0.013584873238205909,0.18980960128083824
1663326949061065000,2.55206494140625,-0.009371639457345008,0.045912440869212146,0.2667683377988636
1663326949071022000,2.56202197265625,-0.0677653762370348,0.04404796217158437,0.285488528098911
1663326949080978000,2.57197802734375,-0.16941782450675963,0.02027311883047223,0.23551117587834594
1663326949090935000,2.58193505859375,-0.21619009707570075,-0.005014905552566051,0.2760175199203193
1663326949100892200,2.59189208984375,-0.12485036850571632,-0.033598318219184874,0.3007689532086253
1663326949110848000,2.601847900390625,0.06482172400057315,-0.02354161910712719,0.29310908610522746
1663326949120805000,2.61180517578125,0.28921792388558387,-0.02841697005853057,0.3215934223115444
1663326949130762000,2.621761962890625,0.4760848958432674,-0.01718216707780957,0.36387452094107864
1663326949140718000,2.631718017578125,0.5680915638893842,0.01314823538661003,0.37623686664700506
1663326949150675000,2.641675048828125,0.5472609573066234,0.049638767915964124,0.3716675129048526
1663326949160631800,2.6516318359375,0.46238078013956546,0.05530234663560986,0.4352832221165299
1663326949170588000,2.661587890625,0.4182061228483915,0.04100450282245874,0.5504650140449404
1663326949180545000,2.671544921875,0.4969909057497978,0.06551584374457597,0.6666641663223505
1663326949190502000,2.681501953125,0.6790612910807132,0.09772475343197584,0.6942004080235957
1663326949200459000,2.691458984375,0.8488122930645943,0.1009022144243121,0.6921770855024456
1663326949210415000,2.7014150390625,0.9199152892917394,0.11197846584245562,0.7123062658175826
1663326949220372000,2.7113720703125,0.8355921614855527,0.07134981059506536,0.6590139438301325
1663326949230329000,2.7213291015625,0.6821101572573185,0.015075111795961856,0.5420233489140868
1663326949240285000,2.731284912109375,0.5602811823993921,-0.003765197752416134,0.4134659425839782
1663326949250242000,2.741241943359375,0.4669306985288858,-0.026060908451676367,0.31260493695288893
1663326949260199200,2.75119921875,0.42803368937969205,-0.06008841186836362,0.22229016751646993
1663326949270155000,2.761155029296875,0.4379559484571218,-0.06618789778724313,0.18975246426612138
1663326949280112000,2.771112060546875,0.5296083962380885,-0.08076704275980591,0.19525749142318963
1663326949290069000,2.781069091796875,0.5833475852102041,-0.07185045359358191,0.2255485847905278
1663326949300025000,2.791025146484375,0.51056408855021,-0.07115560319721698,0.26069588601738214
1663326949309982000,2.80098193359375,0.4447662129938602,-0.10612696333527565,0.24861206499189137
1663326949319938800,2.810938720703125,0.39094109930396076,-0.12609803047925233,0.14586217687427996
1663326949329896000,2.82089599609375,0.33103228178620336,-0.13878712392151354,0.07023059730678796
1663326949339852000,2.83085205078125,0.3375087843239307,-0.16932283969968556,0.02493921094536781
1663326949349809000,2.840808837890625,0.4554688087940216,-0.19852248456850646,-0.10385054283589124
1663326949359766000,2.85076611328125,0.6442857457756995,-0.21387188326120377,-0.3375938322588801
1663326949369722000,2.86072216796875,0.778705322137475,-0.23479499043300747,-0.5283528432190417
1663326949379679000,2.870678955078125,0.8168377766549587,-0.2640603940144181,-0.6915954862222075
1663326949389636000,2.880635986328125,0.7949871793746948,-0.2984228284738958,-0.8419546822547912
1663326949399592000,2.890592041015625,0.7682651766657829,-0.3065887454032898,-0.8149380805134773
1663326949409549000,2.900549072265625,0.8370680792570113,-0.3277874546460807,-0.6291726400569081
1663326949419506200,2.910506103515625,1.1394774931490421,-0.42900121923759577,-0.48202597633004185
1663326949429462800,2.920462890625,1.6233073040306567,-0.5827484502732754,-0.5778887352824211
1663326949439419100,2.930419189453125,2.160786287513375,-0.5482157738134265,-0.9318035877451301
1663326949449376000,2.9403759765625,2.7587083415210247,-0.4453872675016522,-1.186736964713037
1663326949459332900,2.950332763671875,3.3253684113025663,-0.3233586784183979,-1.5223890152543782
1663326949469289000,2.9602890625,3.685591131737828,0.024147476045787333,-1.9237074239268899
1663326949479245800,2.970245849609375,3.910952961784601,0.9452131044164299,-2.452712301313877
1663326949489203000,2.980202880859375,4.332063573902845,1.854862143498659,-2.701681216919422
1663326949499159000,2.990158935546875,4.88329460388422,-1.1639996477261185,-0.272024212500453
1663326949509116000,3.000115966796875,5.47763412322998,0.6173235045701265,-0.45132425633519885
1663326949519073000,3.010072998046875,6.014316403377056,2.154149041455984,-0.46009442276805634
1663326949529030100,3.020030029296875,7.017286992496252,1.4758523050069807,0.07288169633746147
1663326949538986000,3.029986083984375,8.28336841982007,1.7105340443238615,-0.17076719328910112
1663326949548943000,3.039943115234375,9.32131796786189,2.559846395865083,0.07410568517446517
1663326949558900200,3.049900146484375,10.155188712382316,3.0687843445181846,0.6989820893421769
1663326949568856000,3.05985595703125,10.76306225156188,3.3424349891766902,1.241519817519188
1663326949578813200,3.069813232421875,11.327643761503696,3.1527994292885064,1.66538981134817
1663326949588769800,3.079769775390625,11.45501341935396,2.8124317484021186,2.6961580695837735
1663326949598726100,3.08972607421875,11.291199990725516,2.5129022738605737,4.0389498116225
1663326949608683000,3.09968310546875,10.897187813413142,2.7611875911161303,4.948310389152169
1663326949618640000,3.109639892578125,10.752125847005843,3.046232028709352,5.203000020492077
1663326949628597000,3.119596923828125,10.96006249499917,3.1918110047280788,4.8889381627291435
1663326949638552800,3.129552734375,11.064845057988165,3.1005007945135232,4.02563381845355
1663326949648510000,3.139510009765625,10.293540367496012,2.330459548085928,2.793370489579439
1663326949658467000,3.149467041015625,8.441302142760158,1.0228174453616141,1.6447066504120826
1663326949668423000,3.1594228515625,6.0400447188735,0.2576978732451796,0.5676680777803063
1663326949678380000,3.169380126953125,3.739385265767574,1.2190382288590074,-0.4650545293934643
1663326949688337200,3.179337158203125,3.4135715954124923,2.8813901338160037,-0.5580912711396813
1663326949698293200,3.189293212890625,5.089559519273043,4.228081513641774,0.13305062609612942
1663326949708250000,3.19925,6.645035980615019,7.743847116854786,1.089821774098277
1663326949718207200,3.209207275390625,8.31141670269668,11.842628589105605,2.04450837091133
1663326949728164000,3.2191640625,10.285336018252373,12.925409797042608,0.9740598441943525
1663326949738120200,3.2291201171875,11.17800615774393,12.778676098030806,-1.3636087584875523
1663326949748077000,3.2390771484375,9.67917395916581,15.27128669449091,-1.8436174036458133
1663326949758034000,3.249033935546875,4.447747470134496,17.880048804694415,0.6925315980285406
1663326949767990000,3.258989990234375,-4.016418246340751,19.58974727497697,2.7534020518064497
1663326949777947100,3.268947021484375,-14.318905305880307,19.004025946372746,1.59215097213611
1663326949787904000,3.278904052734375,-24.435577532863615,17.69474952044487,-1.8126146548777817
1663326949797860000,3.288860107421875,-32.20371913301945,14.429355393111704,-6.5368164289146655
1663326949807817000,3.29881689453125,-36.82352997373342,10.099415971755981,-10.259560941004752
1663326949817774000,3.308774169921875,-39.00611834321022,6.5710179737240075,-10.998637432587147
1663326949827730200,3.318730224609375,-35.77612753769159,-0.4334551299065351,-7.378266084256768
1663326949837687000,3.32868701171875,-30.864794587802884,-2.6330890344694255,-4.737120584581792
1663326949847644200,3.33864404296875,-23.788179792547226,-2.728020357790589,-1.7667559900224208
1663326949857601300,3.348601318359375,-15.932841554975509,-2.9724007765620946,0.7652690635897219
1663326949867557000,3.35855712890625,-9.24768691446185,-2.961264173258841,3.178581520798802
1663326949877514200,3.36851416015625,-3.7551340390414,-3.182194450598955,4.725239008130133
1663326949887471000,3.37847119140625,0.3239461229175329,-3.389603859847784,5.504761199608445
1663326949897427200,3.38842724609375,3.00316299457252,-3.2467022863447665,5.677235489076375
1663326949907384000,3.398384033203125,4.401182702836394,-3.486839660719037,4.9960459537953135
1663326949917341000,3.4083408203125,4.6085336598962545,-3.480310551211238,3.276427270261943
1663326949927298000,3.418298095703125,3.383014544585347,-3.2539795838713643,0.7013510104306042
1663326949937254100,3.428254150390625,1.1135814198702574,-2.8741338790774345,-2.3096138900645076
1663326949947211000,3.4382109375,-1.2180477565169334,-2.15483731598109,-5.101674319958686
1663326949957168000,3.448168212890625,-2.7997160592138766,-1.9398755916565655,-6.427936367478966
1663326949967124000,3.4581240234375,-3.5380291652083393,-1.3807234132871031,-6.035237026330829
1663326949977081000,3.4680810546875,-2.7732413092643022,-1.1101147666729987,-4.66852986343652
1663326949987038200,3.4780380859375,-1.3830910192012786,-1.3341180217176676,-3.0032448276370762
1663326949996994000,3.487994140625,-0.3663666300177574,-1.2341104180455207,-1.2674639677233994
1663326950006951200,3.497951171875,0.09977379491627215,-1.1474367815904318,0.2874631891727447
1663326950016908300,3.507908203125,0.1350806706190109,-1.261372518980503,1.3985441705293953
1663326950026865000,3.517864990234375,-0.6326058293759822,-1.0313292531192302,1.9714223841734229
1663326950036821200,3.5278212890625,-2.1287965735346077,-0.330895942055434,2.1867013577535745
1663326950046778000,3.537778076171875,-3.390573581662774,-0.06919803938865661,2.15853456306383
1663326950056735000,3.54773486328125,-4.057367511844634,-0.027745792798697946,1.7545777687117456
1663326950066691000,3.557691162109375,-3.9204292306601998,0.3589676058076322,1.3184925825625657
1663326950076648000,3.56764794921875,-2.9301994651705026,0.6669612495727837,1.0125035566180944
1663326950086605000,3.57760498046875,-1.5653022743076086,0.685909841801226,0.6722776222899556
1663326950096561200,3.58756103515625,-0.18049159170687198,0.6790677208214998,0.18323095354288815
1663326950106518000,3.59751806640625,0.9605541736721992,0.7732803744792938,-0.10220160658508538
1663326950116475100,3.60747509765625,1.67199622387588,0.7474423149980605,0.03229132727384567
1663326950126432300,3.617432373046875,1.785778670400381,0.5872878472685814,0.4263187021553516
1663326950136388000,3.62738818359375,1.1285463492900132,0.39173502616062755,0.802911250372231
1663326950146345200,3.63734521484375,0.02579845812320709,0.49634384001791476,1.0384398157767951
1663326950156302300,3.64730224609375,-1.1714426572084427,0.8615808814838528,1.1322463728517294
1663326950166258200,3.657258056640625,-2.0602894390195607,0.9340028513550758,1.141865703459829
1663326950176215300,3.66721533203125,-2.329819496616721,0.598308715237677,0.9354244085907936
1663326950186172000,3.677171875,-2.007945503798127,0.44632776322215795,0.6259702638190239
1663326950196129000,3.68712890625,-1.1942010169833899,0.41650574867129325,0.321598829139024
1663326950206085000,3.697085205078125,-0.24157062204778193,0.10228256286680698,0.03983823552206158
1663326950216042000,3.7070419921875,0.27997312567830085,-0.25423954948484895,-0.17462978700138626
1663326950225999000,3.7169990234375,0.005306289714574814,-0.4310284872815013,-0.2614171860292554
1663326950235955000,3.726954833984375,-0.6998755310505628,-0.5115194895789027,-0.05304075837917625
1663326950245912000,3.736912109375,-1.1671207023561,-0.4995779996335506,0.10633315343186259
1663326950255869200,3.746869140625,-1.2424158895760773,-0.430913336469233,0.16797507835254072
1663326950265825000,3.756824951171875,-1.1222165617465971,-0.37991117124557494,0.18198036895990372
1663326950275782100,3.7667822265625,-0.9447188911586999,-0.25904461167901754,0.12860022255852818
1663326950285739300,3.7767392578125,-0.7130711127102375,-0.14849369442164898,0.039894276558235284
1663326950295696100,3.786696044921875,-0.5814478890687227,-0.1489665726304054,-0.22420732624940573
1663326950305652200,3.79665234375,-0.7063929501205682,-0.014072949016094207,-0.6387495197627693
1663326950315609000,3.806609130859375,-0.940729529261589,0.048395782117545603,-0.8973432458691298
1663326950325566000,3.81656591796875,-1.0757049859404564,0.06682780312597751,-0.8920401710249483
1663326950335522000,3.82652197265625,-1.1261375345826148,0.06566781943589449,-0.7404463186308741
1663326950345479000,3.83647900390625,-1.0621054996550083,0.005691781900823116,-0.556783914868161
1663326950355436000,3.84643603515625,-0.8927285916805267,-0.055253100666403765,-0.5075283741161227
1663326950365393200,3.85639306640625,-0.7079582997411489,-0.050825639612972734,-0.5246043043404818
1663326950375349000,3.866348876953125,-0.5312117397814988,-0.04337210873663425,-0.4927279145430773
1663326950385306000,3.87630615234375,-0.40167233667671676,0.04565028280168772,-0.5749126420810818
1663326950395263200,3.88626318359375,-0.37305706756711005,0.1803843319401145,-0.8109459421373904
1663326950405219000,3.896218994140625,-0.4647358188331127,0.24640374129265546,-1.020273533032462
1663326950415176200,3.90617626953125,-0.70264090411067,0.27573066580295563,-1.0168166705768555
1663326950425133000,3.916133056640625,-1.0617349127769469,0.1919850456237793,-0.7038396123759448
1663326950435090200,3.926090087890625,-1.32853700671494,0.19104981060028076,-0.3701584965813905
1663326950445046300,3.93604638671875,-1.3359943369835614,0.1530716698616743,-0.1482785903662443
1663326950455003100,3.946003173828125,-1.041747771281004,0.15834113469719885,0.01511895093768835
1663326950464960000,3.9559599609375,-0.6306365751296281,0.19960253489017485,0.18212869138941168
1663326950474916000,3.965916015625,-0.4117892415434122,0.1812614070355892,0.20343845979124306
1663326950484873000,3.975873046875,-0.42467210399210453,0.23128508261591194,0.12789675046429036
1663326950494830000,3.985830078125,-0.5619178436905146,0.27148323749154807,-0.15240750686451793
1663326950504786000,3.995785888671875,-0.8099532778382301,0.2657151754841208,-0.529348283997178
1663326950514743000,4.005742919921875,-1.208370996633172,0.3189908385977149,-0.8835239793531596
1663326950524700200,4.0157001953125,-1.6627309674024582,0.3323842809170484,-1.0464888283282519
1663326950534657000,4.025656982421875,-1.9962299315631389,0.25419278773367404,-1.024278896216303
1663326950544613000,4.035613037109375,-2.033035521391034,0.15762860251367092,-0.9517118187859653
1663326950554570200,4.0455703125,-1.6422592572599648,0.08095248232930898,-0.8239604681417345
1663326950564527000,4.055527099609375,-0.893205561542511,0.07111410214304924,-0.4947036715954542
1663326950574483200,4.065483154296875,-0.20967267800569533,-0.11189940925687551,-0.2629626619055867
1663326950584440000,4.075440185546875,-0.4984662389993667,-0.4074935901761055,-0.488642764121294
1663326950594397200,4.085397216796875,-1.8676964906305074,-0.263965409207344,-0.822159848460555
1663326950604354000,4.09535400390625,-3.256366771268844,0.262272049292922,-0.9906927068263292
1663326950614310100,4.10531005859375,-3.9580958212316033,0.5595715728253126,-1.097037696826458
1663326950624267000,4.11526708984375,-4.058676840877533,0.5209755924493074,-1.192897240908444
1663326950634224000,4.12522412109375,-3.636599429553747,0.3573907118797302,-1.0938134740829468
1663326950644180000,4.135179931640625,-2.740523281010985,0.2553969028264284,-0.6865234436549246
1663326950654137000,4.14513720703125,-1.5500561898589134,0.31488866397589443,-0.11841478250026702
1663326950664094200,4.15509423828125,-0.3059036857485771,0.48323564438074823,0.5154430927634239
1663326950674051000,4.165051025390625,0.32112054410278795,0.3583566343024373,0.7712889084011316
1663326950684007200,4.175007080078125,-0.571999092721939,0.04012655094414949,0.4448189660944044
1663326950693964000,4.184964111328125,-2.400149170383811,0.3169400435477495,0.2871025391668081
1663326950703921200,4.194921142578125,-3.9423488015234467,0.6662725366562604,0.19710487285554407
1663326950713877000,4.204876953125,-4.577915818792581,1.00109778098464,0.0758975370272994
1663326950723834000,4.214834228515625,-4.5652971602380275,1.156661559922993,-0.08872399311363696
1663326950733791000,4.224791015625,-4.057799473521113,1.0540738766297697,-0.41664720296859736
1663326950743747800,4.234747802734375,-2.9952076516538857,0.8121759223237633,-0.8353219662420451
1663326950753704200,4.2447041015625,-1.6581500693529843,0.7904338999845087,-1.0753852524667977
1663326950763660800,4.254660888671875,-0.49661798078417774,1.009424879825115,-0.8722320393577218
1663326950773618000,4.264617919921875,0.40569150919020175,1.2448467699848114,-0.41819779341146346
1663326950783573800,4.27457373046875,0.7399807469457388,1.0577329836592078,-0.024094284553825854
1663326950793531000,4.28453076171875,-0.28345687614083287,0.2771440397322178,-0.23709771441742777
1663326950803488000,4.294488037109375,-2.627037771606445,0.27902386212944985,-0.5715260683827101
1663326950813445000,4.304445068359375,-4.818513211894035,1.052578815766424,-0.4269685443662107
1663326950823401000,4.31440087890625,-5.734525064006448,1.1867298043198884,-0.35443814568445087
1663326950833358000,4.324358154296875,-5.368340804818272,0.9594120178997516,-0.5367560760356486
1663326950843315000,4.33431494140625,-4.229058541980385,0.8925846531651913,-0.7610824255548417
1663326950853271000,4.34427099609375,-2.7379923012286422,0.7046082586608827,-0.7875522070683538
1663326950863228200,4.354228271484375,-1.4183978949040175,0.8901406210139393,-0.36870267174988985
1663326950873185000,4.36418505859375,-0.5478507398933172,1.174452360418439,0.3335990635342896
1663326950883142000,4.374141845703125,-0.12038462126851081,1.0582179906971751,0.8947348169364034
1663326950893098000,4.384097900390625,-0.4611667281746864,0.7473425078853965,1.1174787195697427
1663326950903054800,4.394054931640625,-1.6296604724496602,0.6788990862563252,1.0937341252364217
1663326950913012000,4.404011962890625,-2.7930209454894066,1.113368507771939,1.0662969599954784
1663326950922967800,4.4139677734375,-3.3887598102390766,1.3099939265474676,1.1209000723205507
1663326950932925000,4.423925048828125,-3.239269505995512,1.1118336994200944,0.9501033606760203
1663326950942882000,4.433882080078125,-2.4208897605955597,0.8842372421890496,0.5464575319692492
1663326950952839000,4.4438388671875,-1.3337936120688914,0.7466618321448564,0.3018263533070683
1663326950962795000,4.453794921875,-0.32098435050249097,0.8757429700881242,0.12440160182490945
1663326950972752000,4.463751953125,0.5221826301515102,1.2848583162471652,-0.09778086753338575
1663326950982709000,4.473708984375,0.9593617490172386,1.5135501674994825,-0.03811944890543818
1663326950992665000,4.4836650390625,0.7644003179311751,0.9790484462618827,0.23553090349212288
1663326951002622000,4.4936220703125,0.14503215579092502,0.3498521330684423,0.47357320528328417
1663326951012579000,4.5035791015625,-0.3250269038915634,0.40473157811686394,0.6259951790645718
1663326951022536000,4.513535888671875,-0.13829028031527996,0.704569899411872,0.7192690905675292
1663326951032492000,4.523491943359375,0.6986994730085134,1.083949521064013,0.7532417950570582
1663326951042449000,4.533448974609375,1.7982851007521152,1.5013875821493565,0.7823867871291935
1663326951052406000,4.543406005859375,2.609958041989803,1.5325027052506803,0.7238103872589766
1663326951062361900,4.55336181640625,3.003058365154266,1.6703268293589353,0.5099592545248568
1663326951072319000,4.563319091796875,3.028364655846357,1.6340210057467222,0.5877161556832492
1663326951082275800,4.57327587890625,2.757254635581374,1.0693284366458653,0.9233312352150678
1663326951092233000,4.58323291015625,2.1072095956265926,0.2674350580792874,1.2620578708961605
1663326951102189000,4.59318896484375,1.2495546554148196,-0.37415403249096124,1.1730693816274405
1663326951112146000,4.60314599609375,0.7790677257090807,0.05724179026558995,0.6794820007108151
1663326951122103000,4.61310302734375,0.9922247386991977,0.7161380260001867,0.30558950523287054
1663326951132059000,4.623058837890625,1.536791050094366,0.9781582924891262,0.22796017597690224
1663326951142016000,4.63301611328125,2.0162422075003383,0.8542802030816674,0.38310061493664976
1663326951151973000,4.64297314453125,2.2528975849777457,0.6856980987466871,0.6315360081873834
1663326951161930000,4.652929931640625,2.36822258476913,0.5981286094304173,0.9901546544268727
1663326951171886000,4.662885986328125,2.5197230597913265,0.34550489764437076,1.1520384301669895
1663326951181843000,4.672843017578125,2.760406962132454,0.18815584272444247,0.8471779698610306
1663326951191799800,4.6827998046875,3.0635283236861226,0.12020217737369239,0.6176636963099241
1663326951201756000,4.692755859375,3.296860694220662,-0.030235782983526586,0.6987140860557556
1663326951211713000,4.702713134765625,3.3747774621158837,-0.07022628645785152,0.8376302431844175
1663326951221670000,4.712669921875,3.359403367373347,0.12637472852878273,0.9937835124485194
1663326951231627000,4.722626953125,3.3268747242122885,0.27424232694134115,1.1399844197578728
1663326951241582800,4.732582763671875,3.286392491698265,0.10863543902486562,1.0174322451919318
1663326951251540000,4.7425400390625,3.2970103318244215,-0.1376512517593801,0.7190436112485825
1663326951261497000,4.7524970703125,3.3681291101425885,-0.3178757169626653,0.5365013706222176
1663326951271454000,4.762453857421875,3.4368846664607524,-0.4904432376720011,0.4456199072137475
1663326951281410000,4.77241015625,3.4883114868372678,-0.5229074372947216,0.34495150154531
1663326951291367200,4.7823671875,3.560020047742128,-0.3166357999041676,0.3773956812933087
1663326951301323800,4.79232373046875,3.6433261074602603,-0.10821297582909464,0.5905147003605962
1663326951311280000,4.802280029296875,3.732582015493512,-0.06147504392117262,0.8816659303963184
1663326951321237000,4.812237060546875,3.7076270224571224,-0.09153378983736038,1.069323468209803
1663326951331193900,4.82219384765625,3.506235266062617,-0.1458348504759371,1.0251385817855596
1663326951341151000,4.83215087890625,3.22817586505115,-0.2594590376988053,0.7588181338846683
1663326951351106800,4.84210693359375,2.9557442407935857,-0.43349326995983717,0.3255670021176338
1663326951361064000,4.85206396484375,2.764110492825508,-0.6038998132430017,-0.1396414026632905
1663326951371021000,4.86202099609375,2.701477803301811,-0.792051125922799,-0.3951426426470279
1663326951380977000,4.871976806640625,2.6506086168080567,-0.8440838032379746,-0.41692645830139513
1663326951390934000,4.88193408203125,2.6304449497014284,-0.6931831938050687,-0.3396121863439679
1663326951400891100,4.89189111328125,2.5847423521906134,-0.44178661266118285,-0.2860619440726936
1663326951410848000,4.901847900390625,2.4462995116621253,-0.05421762013882398,-0.25281068572551013
1663326951420804000,4.91180419921875,2.259229126086831,0.005881459254026412,-0.05076996390298009
1663326951430761000,4.921760986328125,2.051629162701964,-0.16724208790287373,0.11766513317674397
1663326951440717800,4.9317177734375,1.8298796779334543,-0.3109418260462582,0.17473989631235598
1663326951450674200,4.941674072265625,1.6839602179139852,-0.35757951245009895,0.00800473501831293
1663326951460630800,4.951630859375,1.669023930066824,-0.35294556903913615,-0.3953684142269194
1663326951470588000,4.961587890625,1.7006033096790312,-0.33346228541210293,-0.7828853843010961
1663326951480545000,4.971544921875,1.6855822661578654,-0.2666162890423089,-1.0016006159402429
1663326951490500900,4.9815009765625,1.5260685805499552,-0.2276948030389845,-1.0461743555516003
1663326951500458000,4.9914580078125,1.2452081506431103,-0.26813626515120265,-0.9144294052265584
1663326951510415000,5.0014150390625,0.9377490521460771,-0.302559928278625,-0.6767420543529092
1663326951520372000,5.0113720703125,0.6511228983193635,-0.2572697840262204,-0.4788526069909334
1663326951530328000,5.021328125,0.5418482846081256,-0.1748859537195414,-0.36665538383126256
1663326951540285000,5.031284912109375,0.7017635367542505,-0.14319748770967125,-0.2799295787975192
1663326951550242000,5.041241943359375,0.942130043709278,-0.10900580670721828,-0.23038535729721188
1663326951560198100,5.0511982421875,1.0643594160616396,0.00544803627282381,-0.22180355304330587
1663326951570155000,5.061155029296875,0.9526391627639531,0.18317220909297466,-0.19592457702979443
1663326951580112000,5.07111181640625,0.5855769516974687,0.17206285912282765,-0.11785378761664032
1663326951590069000,5.081069091796875,0.05241057071685791,0.04533208369798958,0.03489142676964402
1663326951600024800,5.09102490234375,-0.5035264449983835,-0.05043671336062252,0.09169044170379638
1663326951609982000,5.10098193359375,-0.9029629854470491,-0.07762202273234725,-0.03405059203132987
1663326951619939000,5.11093896484375,-1.0458780029535293,-0.05095394216775894,-0.1869071578375995
1663326951629895000,5.12089501953125,-1.009592637607455,-0.003911839681491255,-0.22446941125169395
1663326951639852000,5.13085205078125,-0.8250503092050552,-0.05967880815416574,-0.1320803197592497
1663326951649809000,5.140808837890625,-0.5839180785745381,-0.02495506610162556,0.03425853569358587
1663326951659766000,5.15076611328125,-0.3537082239747047,0.05770736195072532,0.1926459937505424
1663326951669722000,5.16072216796875,-0.18188626093566418,0.1059261800661683,0.35913755554705856
1663326951679679000,5.170678955078125,-0.08667232128083706,0.1257893298562616,0.44967897334620355
1663326951689636000,5.180635986328125,-0.08676467573940753,0.18553879209384322,0.3932314021982252
1663326951699592700,5.1905927734375,-0.11556816089749336,0.27992329518720505,0.27497750934809445
1663326951709548800,5.200548828125,-0.17337445317804812,0.2507926239013672,0.09847937119156122
1663326951719505700,5.210505615234375,-0.2779267145425081,0.14000409849584103,-0.09362944694235921
1663326951729462500,5.220462646484375,-0.44527357799410816,0.08909998681917786,-0.2941875289916992
1663326951739418600,5.230418701171875,-0.5869815577983856,0.1264449442207813,-0.6246025556623935
1663326951749375700,5.240375732421875,-0.6314560748189687,0.08762534768935293,-0.9249126591876149
1663326951759332600,5.25033251953125,-0.6236363409787417,0.0545775760250166,-1.0059297311857343
1663326951769289700,5.260289794921875,-0.5790589481055736,0.09628467415887862,-0.8958674742281436
1663326951779245600,5.27024560546875,-0.44078737249076366,0.19376155377700924,-0.7677724247127771
1663326951789202700,5.28020263671875,-0.20252163720726965,0.20244279981739818,-0.5686920140005648
1663326951799159800,5.290159912109375,0.05214461325705051,0.20083185748942195,-0.34961949335634707
1663326951809117000,5.300116943359375,0.23180092318356035,0.21157778097465632,-0.20146087610796093
1663326951819072800,5.31007275390625,0.34298516990840433,0.21424327385686337,-0.1662117219418287
1663326951829030000,5.32002978515625,0.3415186044871807,0.1504765388019383,-0.2911104596339166
1663326951838986800,5.32998681640625,0.2514098790168762,0.04861592767424881,-0.4586832407958805
1663326951848942800,5.33994287109375,0.14293547577261925,-0.04837970776557922,-0.5369112665973603
1663326951858899700,5.349899658203125,0.050372927409410476,-0.06375555607378483,-0.48372313563674685
1663326951868856600,5.359856689453125,0.058114335316419595,-0.034116789135336875,-0.4051680698379874
1663326951878813700,5.369813720703125,0.1584130308896303,-0.04340235774442553,-0.35876550736427304
1663326951888769500,5.37976953125,0.23279870204925535,-0.10976524677239358,-0.2195227486297488
1663326951898726700,5.3897265625,0.2511480132102966,-0.08142148808054625,0.01780599806457758
1663326951908683800,5.399683837890625,0.3020084318757057,-0.07866868224106728,0.2634745569504797
1663326951918640600,5.409640625,0.31844986358880994,-0.1079690475380048,0.4687839251801371
1663326951928596700,5.4195966796875,0.24169629425406455,-0.024710187962464988,0.6092454120546579
1663326951938553900,5.429553955078125,0.16838848145902155,0.0007071253560483455,0.6339011298835278
1663326951948510700,5.4395107421875,0.163881817689538,-0.02199603363294154,0.6136926007218658
1663326951958466800,5.449466796875,0.16236439886391163,-0.05083897401858121,0.5609304400883615
1663326951968423700,5.459423583984375,0.07508008316457271,-0.10681932951360941,0.5654010096311569
1663326951978380800,5.469380859375,-0.12611235126554965,-0.1469142066778615,0.657504123789072
1663326951988337700,5.479337646484375,-0.3401169209957123,-0.14911807339768857,0.7548360785111784
1663326951998293800,5.489293701171875,-0.4646534012466669,-0.19313436178937554,0.8094719240620731
1663326952008250600,5.499250732421875,-0.5286871897399426,-0.16686295239217577,0.8697906375549733
1663326952018207700,5.509207763671875,-0.5340431638151407,-0.040484095677547155,1.0394488466888665
1663326952028164600,5.51916455078125,-0.4552618880450725,-0.022178806321322915,1.2877774185642599
1663326952038120700,5.52912060546875,-0.295521407943964,-0.017687851577624678,1.4597314835503696
1663326952048077800,5.539077880859375,-0.11040391000211239,-0.04642188822869211,1.5675746031537652
1663326952058034700,5.54903466796875,-0.01624386331439018,-0.09106335931401699,1.5856724237717688
1663326952067990800,5.55899072265625,-0.07999240512549877,-0.08885982138775289,1.3956576553076505
1663326952077947600,5.56894775390625,-0.21952304089069366,-0.11183246323419734,1.0010400594480335
1663326952087904800,5.57890478515625,-0.31601357635259625,-0.13367942551895975,0.519987019803375
1663326952097862000,5.58886181640625,-0.4169996696680784,-0.14116210942454635,0.10040858568847179
1663326952107817700,5.598817626953125,-0.46373862448930736,-0.14563330002184957,-0.09608034722581506
1663326952117774800,5.60877490234375,-0.41407589117586613,-0.1686735820107162,-0.061829410316795105
1663326952127731700,5.618731689453125,-0.3425444404035806,-0.15987784274518488,0.04518719533458352
1663326952137687800,5.628687744140625,-0.22938860134482383,-0.08219261858351529,0.11198168071284889
1663326952147644700,5.638644775390625,-0.08802665849924086,0.01949055361803621,0.14485694535449145
1663326952157601800,5.648601806640625,0.05527297441065311,0.05821213313508779,0.18842150792330503
1663326952167558700,5.65855859375,0.08279051141142844,0.029765096731856462,0.21516279985457656
1663326952177514800,5.6685146484375,-0.016882745739817618,0.007486044906452298,0.153099288520962
1663326952187471600,5.6784716796875,-0.1581388901233673,-0.06673270872104912,0.06610416502654552
1663326952197428700,5.6884287109375,-0.2858183445751667,-0.15806388865839688,-0.007441109786182641
1663326952207385900,5.6983857421875,-0.37063831598758695,-0.2080988162850961,-0.027586948975175617
1663326952217341700,5.708341796875,-0.4182669131249189,-0.1905432858502492,-0.048529345369338985
1663326952227298800,5.718298828125,-0.4248901306569576,-0.1769353605300188,0.08025310188829898
1663326952237256000,5.728255859375,-0.3905950623452663,-0.19752244068048894,0.41654052772372957
1663326952247212500,5.738212646484375,-0.33580841014683244,-0.15572423019707202,0.7319485393986106
1663326952257169000,5.7481689453125,-0.26322598901689054,-0.18949074459001422,1.1107615401439368
1663326952267125500,5.75812548828125,-0.25748189240694047,-0.25903145993649956,1.6072636394634843
1663326952277082600,5.76808251953125,-0.3691846100479364,-0.24410861609280107,2.1459965685300526
1663326952287038700,5.778038818359375,-0.49455578755736346,-0.26765133117847145,2.734174788767099
1663326952296995600,5.78799560546875,-0.5924439148575067,-0.3132466689225286,3.3851901350587603
1663326952306952700,5.79795263671875,-0.674807725289464,-0.28486564696021377,4.007599856851995
1663326952316909800,5.807909912109375,-0.7510241190075874,-0.28174817252680656,4.49309701642394
1663326952326865700,5.81786572265625,-0.8433066813856362,-0.22792780807726085,4.961994631111621
1663326952336822800,5.82782275390625,-0.9330991805136203,-0.15768683550693094,5.437503188371658
1663326952346780000,5.83777978515625,-0.9681593879789113,-0.10077515397854149,5.829112396195531
1663326952356736800,5.84773681640625,-0.9870762698948383,-0.0815608234860003,6.310479031834006
1663326952366692900,5.85769287109375,-1.022105497699976,-0.0864275527395308,6.761051300758123
1663326952376649700,5.867649658203125,-0.9450883089929819,-0.037109248949587344,7.06001729619801
1663326952386606600,5.877606689453125,-0.622667788207531,0.20145766123756764,7.3599991906821725
1663326952396563700,5.887563720703125,-0.22300036161243914,0.36533524114340543,7.807334961903095
1663326952406519600,5.89751953125,-0.08199906877279281,0.4652546550754457,8.219345737242698
1663326952416476700,5.9074765625,-0.36743981220722194,0.4444367253111675,8.529500650694965
1663326952426433800,5.917433837890625,-1.0114286208629608,0.10776632804013789,8.808657783815264
1663326952436389600,5.9273896484375,-1.7322610152244566,-0.32174623825307935,8.799235290953517
1663326952446346800,5.9373466796875,-2.15652512293756,-0.6338445773907005,8.579682439446449
1663326952456303900,5.947303955078125,-2.2083026564478874,-0.9066687811624258,8.550724640509486
1663326952466260700,5.9572607421875,-1.9572616107434033,-0.9748552323557436,9.201355955919622
1663326952476216800,5.967216796875,-1.574790818142891,-0.9663959585029631,10.378977594023942
1663326952486173700,5.977173583984375,-1.0964175191015004,-1.0771833148647099,11.93963934904933
1663326952496130800,5.987130859375,-0.851830179581046,-0.6864079275164753,13.545075480824709
1663326952506087700,5.997087646484375,-1.120242046803236,0.2963311534242704,14.699612595939636
1663326952516043800,6.007043701171875,-1.885399905103445,1.814696283457428,15.011614014041422
1663326952526000600,6.017000732421875,-2.8274457776606083,2.4346232485242187,14.23973064687848
1663326952535957800,6.026957763671875,-3.952579688158631,2.009860689769685,12.764908269441127
1663326952545913600,6.03691357421875,-5.066455707061291,1.7365540362432599,11.27737370994687
1663326952555870700,6.04687060546875,-6.008136837959289,2.293026766270399,10.621088898819684
1663326952565827600,6.05682763671875,-6.38169600982964,3.033576253014803,10.584585506808757
1663326952575784700,6.06678466796875,-5.892965567424893,3.646656128665805,11.0617599514544
1663326952585740800,6.07674072265625,-4.596539855241775,4.9778410195410245,11.865520804393292
1663326952595697700,6.08669775390625,-2.889627800807357,7.128857023668289,12.372558472383021
1663326952605654800,6.09665478515625,-0.8649129485160112,9.216883195397257,11.990186463981866
1663326952615612000,6.10661181640625,1.6307441760331391,10.845081194078922,10.121858105188608
1663326952625567700,6.116567626953125,3.5916011809200046,12.265448343229293,7.210663784739375
1663326952635524900,6.12652490234375,4.603247243925929,12.755845842063426,4.201362141281366
1663326952645481700,6.136481689453125,4.639498707002401,12.021906128847599,1.064995814269036
1663326952655437800,6.146437744140625,2.9282699584126473,11.600517284309863,-1.9898340930461882
1663326952665394700,6.156394775390625,-0.4800198972046375,11.845408575212955,-3.9330972813144323
1663326952675351600,6.1663515625,-3.6474697831362484,11.544252376252413,-4.559527636925876
1663326952685308700,6.17630859375,-5.189794501960277,11.823593049246073,-4.650004318925738
1663326952695264800,6.1862646484375,-4.5681776841104025,12.485609682023524,-5.397375760644674
1663326952705221600,6.1962216796875,-2.5043665007054803,13.154384556889534,-6.706023241019248
1663326952715178800,6.2061787109375,-0.29367899494767186,14.191466674447058,-7.119960600507259
1663326952725135600,6.216135498046875,1.7421715838640928,15.047317780107258,-6.165028358370066
1663326952735091700,6.226091796875,3.0200720437973736,15.265443813681602,-6.133810797807574
1663326952745048600,6.236048583984375,3.0991052485018966,15.291653775215147,-7.449117151549458
1663326952755005700,6.246005615234375,1.7361048311710356,14.217751454782485,-8.747013520807027
1663326952764962600,6.255962646484375,-0.5387924041688442,13.424750480788946,-8.931162465977668
1663326952774918700,6.265918701171875,-2.529828274220228,12.700045044386385,-8.00982854205966
1663326952784875500,6.27587548828125,-3.905077932271361,11.570569889813662,-6.749127054208516
1663326952794832600,6.28583251953125,-4.922974872365594,10.429649796640872,-5.794940077480674
1663326952804789500,6.29578955078125,-5.439858227065205,9.419965973618625,-4.5458691139295695
1663326952814745600,6.30574560546875,-4.964650698578358,8.313446162697673,-2.885194202274084
1663326952824702700,6.31570263671875,-3.455264372760057,7.000693585091829,-2.514735042245686
1663326952834659600,6.32565966796875,-1.6323773301929234,6.169037594011425,-3.875488557432592
1663326952844615700,6.33561572265625,0.005121580797433853,4.788936988797784,-5.1067777805775405
1663326952854572500,6.345572509765625,1.2262070975750683,3.360412836676836,-5.8780964995950455
1663326952864529700,6.35552978515625,1.9584885221898554,2.2043822681337595,-6.361775503829121
1663326952874486800,6.36548681640625,2.039333744752407,1.6140682049117983,-6.117602590328454
1663326952884442600,6.375442626953125,1.5439683943778275,1.2194196293920279,-5.192933384507894
1663326952894399700,6.385399658203125,0.6636316667586565,1.139122249970585,-4.263322046110034
1663326952904356600,6.395356689453125,-0.2923936313122511,1.0149895282149315,-3.3643799867421387
1663326952914313500,6.4053134765625,-0.9764590142905711,0.7545069926872849,-2.3993647420078514
1663326952924269600,6.41526953125,-1.1985410920143127,0.7259903616465627,-1.6848368546180426
1663326952934226700,6.425226806640625,-0.9211310948222875,0.567364710919559,-1.384105895332247
1663326952944183600,6.43518359375,-0.49108080492317674,0.5489677612245083,-1.4511610774733126
1663326952954140700,6.445140625,-0.2872890016496181,0.7481747209258377,-1.364971717403829
1663326952964096500,6.455096435546875,-0.366911988940835,1.0220033524997532,-1.1265024223722517
1663326952974053600,6.4650537109375,-0.5556348178982734,1.2009671501174568,-0.9664341716215014
1663326952984010800,6.4750107421875,-0.7685434090852737,1.3176931027479468,-0.901136208411306
1663326952993966600,6.484966552734375,-0.9401379931092262,1.2220322961084544,-0.966254138879478
1663326953003923700,6.494923828125,-1.0016326185137032,1.001030560967326,-0.9438882855534553
1663326953013880800,6.504880859375,-1.0739368072241544,0.9947440280437468,-0.680590984866023
1663326953023837400,6.51483740234375,-0.9200105663597583,1.0820314124830066,-0.23809768524020908
1663326953033793800,6.524793701171875,-0.6087742874115705,1.0727006895579396,0.18386077587902544
1663326953043750400,6.53475048828125,-0.2933721209555864,1.232730069603026,0.21873276729583738
1663326953053707500,6.54470751953125,0.05070142871141434,1.267943567933887,0.09119622844606637
1663326953063664600,6.55466455078125,0.1270639529019594,1.3154735270023346,-0.05438391661643981
1663326953073620500,6.564620361328125,-0.07579027726054191,1.2570477876491843,-0.14653993000537155
1663326953083577600,6.57457763671875,-0.28269992029368873,0.8167311014100909,-0.10380348882377147
1663326953093534700,6.58453466796875,-0.5343804329454899,0.6281149476975202,0.009503741404414177
1663326953103491600,6.59449169921875,-0.8441103989839553,0.5218254872769117,0.1067971176818013
1663326953113447700,6.60444775390625,-1.0405571001917122,0.5098687997624278,0.09963555548936127
1663326953123404800,6.61440478515625,-1.0556260745078325,0.7094787873066961,0.004619476494193077
1663326953133361700,6.624361572265625,-0.8837959281623363,0.8535961663402617,-0.1901090226188302
1663326953143318500,6.634318603515625,-0.6355027198612689,0.9268455269463359,-0.3648126785740256
1663326953153274600,6.644274658203125,-0.46435003438591954,1.100110382270068,-0.4108163048580289
1663326953163231500,6.6542314453125,-0.41646190952956674,1.1502362030506132,-0.3034416795492172
1663326953173188600,6.664188720703125,-0.4970078568845987,0.9860722074188292,-0.17627105140239
1663326953183145500,6.6741455078125,-0.6546405510514974,0.8962142418392002,-0.17987112172096967
1663326953193101600,6.6841015625,-0.8040233032673597,0.8551970256656408,-0.28158932870328424
1663326953203058700,6.69405859375,-0.9067226302415132,0.9093529787451028,-0.38525866975337264
1663326953213015600,6.704015625,-0.915257234352827,0.9623951253637671,-0.4034837700128555
1663326953222972700,6.71397265625,-0.8607330324828624,1.1276204666167498,-0.4447457547277212
1663326953232928800,6.7239287109375,-0.8345669100910424,1.28866326148808,-0.4050701624214649
1663326953242885600,6.7338857421875,-0.8756324954509734,1.3574952440433203,-0.3624301673516631
1663326953252842800,6.7438427734375,-1.0524369230777024,1.3566256216019392,-0.5296937364339828
1663326953262798600,6.753798583984375,-1.3009300378650426,1.3061648697786032,-0.8034028332814573
1663326953272755700,6.763755615234375,-1.506041107043624,1.245407764868438,-0.9660781977906823
1663326953282712600,6.773712646484375,-1.6161322978347539,1.1258782991245389,-0.9834513573959469
1663326953292669400,6.78366943359375,-1.632579574766755,1.037022277129069,-0.8776949809387325
1663326953302625500,6.79362548828125,-1.5166612852573393,1.1334317832440137,-0.709795159779489
1663326953312582700,6.803582763671875,-1.2851450242340563,1.2847073634691535,-0.6277481602117418
1663326953322539500,6.81353955078125,-0.9913865343093872,1.480461406237632,-0.6421475647032261
1663326953332496600,6.82349658203125,-0.7409639127641916,1.6708124209187925,-0.6652405632600188
1663326953342452500,6.833452392578125,-0.6148024616599083,1.729142298682034,-0.7933309366002679
1663326953352409600,6.84340966796875,-0.5859802718013525,1.5963383408233522,-1.096675585515797
1663326953362366700,6.85336669921875,-0.59294134298563,1.5491750231102108,-1.5285872853726148
1663326953372323800,6.86332373046875,-0.6348837111800909,1.528123613383621,-1.8681272832632063
1663326953382279700,6.87327978515625,-0.6788046859711409,1.3936679427951573,-1.8437892530813813
1663326953392236800,6.88323681640625,-0.6880266878247261,1.3220514440879225,-1.501602247813344
1663326953402193700,6.893193603515625,-0.657250441288948,1.4665014160767196,-1.1032570097327232
1663326953412150500,6.903150634765625,-0.5847755721867084,1.7891807339288293,-0.7497615517258643
1663326953422106600,6.913106689453125,-0.41460780609548087,2.041389654368907,-0.5785415001027285
1663326953432063500,6.9230634765625,-0.1475473534822464,1.8921407576657832,-0.7536901233464479
1663326953442020600,6.9330205078125,0.08208557801246642,1.7293382596455513,-1.1417122664637862
1663326953451977700,6.942977783203125,0.21958967638611793,1.7095460561998188,-1.3546724417075513
1663326953461933600,6.95293359375,0.22995091140270232,1.5536230885602533,-1.2633838588029145
1663326953471890700,6.962890625,0.1404021579027176,1.418387373510003,-0.826720726635307
1663326953481847600,6.97284765625,-0.05531447546482086,1.4992662060812114,-0.30259353828728197
1663326953491804700,6.9828046875,-0.2634223883718252,1.8392323204293846,-0.0427851026289165
1663326953501760800,6.9927607421875,-0.2433621816396713,1.907654699270427,-0.15612404316961764
1663326953511717600,7.002717529296875,0.14030220465958118,1.4211062770798801,-0.7011237775459885
1663326953521674800,7.0126748046875,0.5341524694085121,1.2173306942887603,-1.2172983994543551
1663326953531631600,7.022631591796875,0.5919260284632444,1.2202590028256177,-1.1947324935115873
1663326953541587700,7.032587646484375,0.3492348779529333,1.383440124899894,-1.1166095355197787
1663326953551544600,7.042544677734375,0.02525426824390888,1.386661571164429,-1.2442504115268587
1663326953561501700,7.052501708984375,-0.42226971902549265,1.2777211578436196,-1.1573394591845572
1663326953571458600,7.06245849609375,-0.9815689046502113,1.4627992005579173,-0.8441732350870966
1663326953581414700,7.07241455078125,-1.5000801528126,1.858685208918154,-0.584536648864299
1663326953591371500,7.08237158203125,-1.6839403441697358,2.028231043718755,-0.6129021809965371
1663326953601328600,7.09232861328125,-1.5251730930149554,2.0594912743791935,-0.8712569107152521
1663326953611285800,7.10228564453125,-1.163515371340513,1.930042179906368,-1.0837041680008173
1663326953621241600,7.11224169921875,-0.7548428005129099,1.6308644414119422,-1.3341390645056963
1663326953631198700,7.12219873046875,-0.5533873312324286,1.620462728254497,-1.7177372537009417
1663326953641155800,7.13215576171875,-0.604139028826356,1.6577210302859544,-1.7618737709388135
1663326953651112400,7.142112548828125,-0.8584364459782838,1.539894276806712,-1.1997123277507722
1663326953661068800,7.15206884765625,-1.2437702267944812,1.6996638368718324,-0.5404914631716907
1663326953671025700,7.162025634765625,-1.4792565604925154,2.0385589609876273,-0.157337510612607
1663326953680982500,7.171982421875,-1.3044547048598527,2.2292272249244154,-0.07243475628755987
1663326953690939600,7.181939697265625,-0.7271393855512142,2.362605475539714,-0.20791648198813198
1663326953700895500,7.1918955078125,0.050066053417325014,2.5593597813919184,-0.4494907572977245
1663326953710852400,7.201852294921875,0.7456628842353821,2.7016742026567457,-0.6282536255158484
1663326953720809500,7.2118095703125,1.1607839005500078,2.574284671062231,-0.7436047095965593
1663326953730766300,7.221766357421875,1.2340098802804946,2.425323505259305,-0.8680354644507169
1663326953740722400,7.231722412109375,1.0765677402496336,2.3957431905098256,-0.8663453194066881
1663326953750679600,7.241679443359375,0.8220628178268671,2.5037726264655586,-0.9057421678368002
1663326953760636400,7.251636474609375,0.6289595818281173,2.6017630450963973,-1.0688437218688427
1663326953770593300,7.26159326171875,0.5623544815421104,2.699026026235521,-1.157281883778423
1663326953780549400,7.27154931640625,0.5952665710628032,2.6561978151172396,-1.0639289156898855
1663326953790506200,7.28150634765625,0.693081048604846,2.435894291373342,-0.6674073128398508
1663326953800463400,7.29146337890625,0.8411579789191483,2.300623212748766,-0.13103369678314775
1663326953810420200,7.301420166015625,0.7874152828156947,2.146023310406506,0.47603053530752654
1663326953820376300,7.311376220703125,0.35576924815773964,2.10462673952654,0.8644036107543855
1663326953830333400,7.32133349609375,-0.065198740619421,2.2759251170828936,0.7304726946923882
1663326953840290300,7.331290283203125,-0.20298340950012206,2.386204523922503,-0.041740379348956046
1663326953850246400,7.341246337890625,-0.2831464950174093,2.292094746117294,-0.9121763656027615
1663326953860203500,7.35120361328125,-0.5505407096296548,2.2455472222149373,-1.2693826608262955
1663326953870160400,7.361160400390625,-0.8146943348854779,2.1211824452690777,-0.9261094677567482
1663326953880117500,7.371117431640625,-0.9148959998250007,1.6789038113072514,0.039705110661685465
1663326953890073300,7.3810732421875,-0.9657289459615945,1.3556070922091603,1.474802942084521
1663326953900030500,7.391030517578125,-1.0127157380640506,1.249170478402823,3.0181007437244056
1663326953909987300,7.4009873046875,-0.9726765731424093,1.0889542705487458,4.283666915002465
1663326953919944200,7.410944091796875,-0.8690934490710497,0.9213789321035146,5.073981426391005
1663326953929900300,7.420900390625,-0.8318997367084026,0.6083798447338864,5.375175034752488
1663326953939857400,7.430857421875,-1.1167448523372412,0.19160817513540385,5.16114182344973
1663326953949814300,7.440814208984375,-1.6112801816284656,-0.08033159221829846,4.3595331801086665
1663326953959771400,7.450771484375,-1.9062948090940712,-0.06863395749880001,3.197623490399122
1663326953969727200,7.460727294921875,-1.6917495566159486,0.07306589379794895,2.046863847996294
1663326953979684400,7.470684326171875,-1.1840262444496155,0.24255322161065412,1.3736677956871688
1663326953989641500,7.480641357421875,-0.8029267402023077,0.19020629071453585,1.688410475321114
1663326953999598600,7.4905986328125,-0.6346750368654728,0.23034750950485466,2.7274492799043655
1663326954009554400,7.500554443359375,-0.604082914724946,0.2940552078489214,3.812653915596008
1663326954019511600,7.510511474609375,-0.5628717834144831,0.09640548752695322,4.567283950141072
1663326954029468400,7.520468505859375,-0.5106459216147661,-0.08135680708019062,4.947027363604307
1663326954039425300,7.53042529296875,-0.5101847338438034,-0.19153985913954674,4.9793525931477545
1663326954049381400,7.54038134765625,-0.8463163845956325,-0.33850020651407536,4.402828716477751
1663326954059338200,7.550338134765625,-1.3569237277656794,-0.4017036816630512,3.5819992398381233
1663326954069295400,7.56029541015625,-1.840150896579027,-0.4939947926737368,3.0062028006598354
1663326954079252500,7.57025244140625,-2.210250283384323,-0.5495401542849838,2.951611086511612
1663326954089208300,7.580208251953125,-2.4448376224160193,-0.5954246842339634,3.4860932262659072
1663326954099165400,7.59016552734375,-2.328667403972149,-0.8105724326498805,4.304846481153369
1663326954109122300,7.600122314453125,-1.896744305938482,-0.9683758072085678,5.01943910434246
1663326954119079400,7.610079345703125,-1.37697107501626,-0.9115694126855581,5.399661241233349
1663326954129035500,7.620035400390625,-0.9188087893545627,-0.8787732046294957,5.541428257748485
1663326954138992400,7.629992431640625,-0.7964607590585947,-0.9045902213227003,5.564261436325311
1663326954148949500,7.639949462890625,-1.023489061012864,-0.942811377036944,5.423058483433723
1663326954158906400,7.64990625,-1.3113783666431904,-1.0405262666620314,5.262382183787226
1663326954168862500,7.659862548828125,-1.3948369865745305,-1.1851256570588797,5.145018956166505
1663326954178819300,7.6698193359375,-1.2927636825442312,-1.2633224840044974,5.018280581957102
1663326954188776400,7.6797763671875,-1.0416945797890425,-1.2990785647794603,4.801515899863839
1663326954198733300,7.6897333984375,-0.6528086594492196,-1.311048696297407,4.467196851491928
1663326954208689400,7.699689453125,-0.22481296399235723,-1.1738586323089897,4.025297133845091
1663326954218646300,7.709646240234375,0.26864450693428515,-1.0405619955625385,3.576403027266264
1663326954228603400,7.719603271484375,0.7039449724465608,-1.0305446055475622,3.260942408621311
1663326954238560500,7.729560546875,0.9497206449687481,-1.0498632731974125,3.053776160478592
1663326954248516400,7.739516357421875,1.0395727653294802,-1.0305828917313367,2.86699862037003
1663326954258473500,7.749473388671875,1.0966671099483967,-1.1332182866238056,2.5726424568131563
1663326954268430600,7.7594306640625,1.095277116894722,-1.15719902780056,2.1297274246439337
1663326954278387200,7.76938720703125,1.0151420884281397,-1.0650289858862758,1.6850370533652603
1663326954288343600,7.779343505859375,0.879307384571433,-0.9978608448900281,1.233730624947697
1663326954298300400,7.789300537109375,0.6749842509001494,-1.0297250327929854,0.8730605991363525
1663326954308257300,7.79925732421875,0.39542555124163625,-0.9900221140883863,0.6754501148462295
1663326954318214400,7.80921435546875,0.17447218528687952,-1.018227414157614,0.6274252118676901
1663326954328170200,7.819170166015625,0.14911504119038582,-0.9849518250867724,0.6835705851987004
1663326954338127400,7.82912744140625,0.19474515798687933,-0.926924875792861,0.7913079063400625
1663326954348084500,7.83908447265625,0.28153730625510215,-0.902227876105532,1.0497175811164081
1663326954358041300,7.849041259765625,0.3454167809695005,-0.9522248098094016,1.4883946834549306
1663326954367997400,7.85899755859375,0.3800263220578432,-1.0240136694088577,1.905352705938369
1663326954377954600,7.86895458984375,0.3621148177921772,-1.043239471143484,2.0810084019213915
1663326954387911400,7.878911376953125,0.36688626997768875,-1.028174369284883,2.021507580682635
1663326954397868300,7.888868408203125,0.3789098852485418,-0.9860491918694227,1.8640480511255562
1663326954407824400,7.898824462890625,0.32019290786385535,-0.9894599501609802,1.6970600841142236
1663326954417781200,7.90878125,0.1543359907090664,-0.9774017750333994,1.59156805768162
1663326954427738400,7.91873828125,-0.13106325167119504,-0.8987374036412685,1.6150290127679705
1663326954437695500,7.928695556640625,-0.3456891681700945,-0.9658893972203135,1.68766740186885
1663326954447651300,7.9386513671875,-0.35837680030763147,-1.0552120138142258,1.8317432798482476
1663326954457608400,7.9486083984375,-0.24212416427731512,-0.988573011258617,2.0086106897085902
1663326954467565300,7.9585654296875,-0.0024678514182567596,-0.9112233757268637,1.9907459471940994
1663326954477522400,7.9685224609375,0.24954817679822444,-0.7496032193589955,1.7113395154878497
1663326954487478500,7.978478515625,0.39941257505118843,-0.5478851536195725,1.2474962615802883
1663326954497435400,7.988435302734375,0.4003782052129507,-0.4183761456530541,0.830730912124738
1663326954507392500,7.998392578125,0.28621698850393296,-0.38181430145315826,0.5065712925869971
1663326954517349400,8.008349365234375,0.09048340400159359,-0.3931580447010696,0.28144634003601965
1663326954527305500,8.018305419921875,-0.10941022278964518,-0.3850199656266719,0.11323774518854915
1663326954537262300,8.028262451171875,-0.29117022699713707,-0.4100752041671425,0.006493051813729107
1663326954547219200,8.03821923828125,-0.45102351982295513,-0.3478928887594491,-0.10094250990208238
1663326954557176300,8.04817626953125,-0.5522714789450168,-0.24272234936617312,-0.2402398483680561
1663326954567132400,8.05813232421875,-0.6056447572141885,-0.13597458725143224,-0.2902733146900311
1663326954577089300,8.06808935546875,-0.6602431933641434,0.019073752978071568,-0.27770178321283306
1663326954587046400,8.07804638671875,-0.6224415782362223,0.056423605750501156,-0.2881677572455257
1663326954597003500,8.08800341796875,-0.478155856898427,0.11465469931438564,-0.44278687574490905
1663326954606959400,8.09795947265625,-0.33140812936127184,0.23150489937905222,-0.7285245562992989
1663326954616916500,8.10791650390625,-0.22620704869925976,0.27432255257070065,-0.9464934996157884
1663326954626873600,8.11787353515625,-0.1543359907090664,0.2660484260264784,-1.083270891150087
1663326954636830200,8.127830322265625,-0.1902244656920433,0.3102789416907355,-1.1126947001636027
1663326954646786600,8.13778662109375,-0.2827618796139955,0.34908739577364173,-1.008165673544258
1663326954656743200,8.1477431640625,-0.4157271655142307,0.34111181378457694,-0.8979017565347254
1663326954666700300,8.1577001953125,-0.5732552302628755,0.33385888351425524,-0.8595932878632098
1663326954676657400,8.167657470703125,-0.6205185012191534,0.334450383134,-0.907609788339585
1663326954686613200,8.17761328125,-0.5762222633749247,0.29611119053065776,-1.0173178980972617
1663326954696570400,8.1875703125,-0.509773230433464,0.2772802333325147,-1.09103304958418
1663326954706528300,8.1975283203125,-0.47903263973295684,0.3087962653849274,-1.0989593125388026
1663326954716485000,8.207485107421874,-0.420939347204566,0.3963926792407408,-1.0891052233267575
1663326954726441200,8.217441162109376,-0.2920475943535566,0.400098292293027,-0.9960451737701892
1663326954736398300,8.2273984375,-0.15126023652553558,0.3148614106427878,-0.8090152663357555
1663326954746355000,8.23735498046875,-0.07832651773989201,0.27484723403193057,-0.6760436237599701
1663326954756312000,8.24731201171875,-0.034731121641397474,0.23098193495087324,-0.5863877200910821
1663326954766268200,8.25726806640625,0.009682605102658271,0.2195855847328901,-0.6205777571257204
1663326954776225000,8.26722509765625,0.0747317081183195,0.2045694731151685,-0.6876859115630388
1663326954786182100,8.27718212890625,0.13794248979091644,0.17688837958313525,-0.6957887731935829
1663326954796139300,8.28713916015625,0.18036241236925124,0.13394231423884628,-0.6667607585646211
1663326954806095000,8.29709521484375,0.26193536468446255,0.08238602226376533,-0.6193905931677669
1663326954816052200,8.30705224609375,0.3822773158550262,0.03718472533859312,-0.6847772575747221
1663326954826009000,8.317009033203124,0.5395528671473264,0.002447393152117729,-0.8860748328797519
1663326954835966200,8.32696630859375,0.7306821727246046,0.02470898238606751,-1.0428576322190464
1663326954845922300,8.33692236328125,0.8484615799307823,0.11336305206865072,-1.1401919980939477
1663326954855879200,8.346879150390626,0.9570049567580222,0.1570660367274657,-1.1499899732045828
1663326954865836000,8.3568359375,0.9964356343924998,0.15502357111442833,-1.1044631706520915
1663326954875793200,8.366793212890625,0.920704978364706,0.13424560803435742,-0.937157077602297
1663326954885749000,8.3767490234375,0.7628513349235058,0.07719130316488444,-0.7102220068894326
1663326954895706000,8.3867060546875,0.5591705908089876,0.016947006615065038,-0.4499191022450104
1663326954905663200,8.396663330078125,0.37599662815034385,-0.05153473773039877,-0.16400500567778944
1663326954915620000,8.4066201171875,0.24585633654296396,-0.0954629459798336,0.04297580289542675
1663326954925576200,8.416576171875,0.21117080760896204,-0.09011584933083504,0.15984068907257168
1663326954935533000,8.426532958984374,0.21546002923548221,-0.042897623092681164,0.3129744278524071
1663326954945490200,8.436490234375,0.18881459889411925,-0.06567340892646462,0.5484593002457171
1663326954955447300,8.446447265625,0.0943476782143116,-0.13151910567991434,0.8178917426872998
1663326954965403100,8.456403076171876,-0.08075462166965007,-0.23146990113090724,1.0783918138716369
1663326954975360300,8.4663603515625,-0.2770996160686016,-0.33623792413789777,1.2964203053556382
1663326954985317000,8.476317138671876,-0.4225333383977413,-0.4603342959385365,1.3816490036994218
1663326954995274000,8.48627392578125,-0.4581190310418606,-0.5135693713134154,1.4082448958106337
1663326955005230000,8.49622998046875,-0.36211657135784625,-0.486404264479503,1.5138378983996807
1663326955015187000,8.50618701171875,-0.17480244015455246,-0.45850667865257705,1.6374974496856332
1663326955025144000,8.51614404296875,-0.0019335984110832214,-0.3989829879948869,1.7063637729018926
1663326955035101200,8.52610107421875,0.13032967669963835,-0.3737477167123928,1.7859556344024836
1663326955045057000,8.53605712890625,0.18968729007542132,-0.41523806682303543,1.7942472235381601
1663326955055014100,8.54601416015625,0.20386720659732818,-0.4553804363908246,1.6030189876310525
1663326955064971300,8.55597119140625,0.20872692158818243,-0.4942588869700208,1.3224191083565353
1663326955074928000,8.56592822265625,0.18275544498562812,-0.46865251735281194,1.202395721615851
1663326955084884200,8.57588427734375,0.15385492919385432,-0.3377245824990794,1.1673887056425214
1663326955094841300,8.58584130859375,0.1763163518488407,-0.24749800280276685,0.9903105756409466
1663326955104798000,8.5957978515625,0.1773147152364254,-0.14565430627726017,0.6362034154765307
1663326955114755000,8.605755126953126,0.07785013239979743,-0.005013773041404783,0.17727847487926482
1663326955124711000,8.6157109375,-0.13157529284656047,0.018166940331459044,-0.2768993259898387
1663326955134668000,8.62566796875,-0.4156459169715643,-0.027268896001949906,-0.6510659805003554
1663326955144625200,8.635625244140625,-0.7071534130990504,-0.012200360077247023,-0.8350126080319284
1663326955154582000,8.64558203125,-0.9560656300812959,-0.10794004063922912,-0.842866755598411
1663326955164538000,8.6555380859375,-1.146723226493597,-0.24388693616613744,-0.7234290597911923
1663326955174495200,8.6654951171875,-1.1811048040449619,-0.2908495984743349,-0.5042137696754188
1663326955184452000,8.6754521484375,-1.0058493594259024,-0.2257267543690279,-0.31330833598189056
1663326955194409200,8.6854091796875,-0.6607219167917966,-0.0806012394725345,-0.2587907830484211
1663326955204365300,8.695365234375,-0.28588556459248066,0.08846671215062961,-0.2914996598809026
1663326955214322200,8.705322265625,-0.030424948880076408,0.21209928409811107,-0.30118949844194576
1663326955224279000,8.715279052734376,0.03561959491372108,0.25037958612106737,-0.3234112853884697
1663326955234236200,8.725236083984376,-0.024824060133099554,0.27073731449507177,-0.47404451258946206
1663326955244192000,8.73519189453125,-0.07209492987394332,0.23371143298000097,-0.7010020508624613
1663326955254149000,8.745149169921875,-0.032960020315647126,0.16261990799494086,-0.8005137607764452
1663326955264106000,8.75510595703125,0.08849486053287982,0.1662284904135391,-0.7808912878744304
1663326955274063000,8.76506298828125,0.2536994512587786,0.1628766592349857,-0.7096336856074631
1663326955284019200,8.775019287109375,0.4250485360890627,0.19313962248638272,-0.5800684904742985
1663326955293976000,8.78497607421875,0.49757601216137404,0.3001870434011332,-0.44739608657341445
1663326955303933200,8.79493310546875,0.4951034845679998,0.3853094866251573,-0.41800723927542566
1663326955313890300,8.804890380859375,0.49049102233648295,0.40318895178474484,-0.4515447672180831
1663326955323847200,8.81484716796875,0.46739890056252476,0.3774732035089284,-0.5630194847894833
1663326955333803300,8.82480322265625,0.4236515287727117,0.3512487750586122,-0.7647410211276262
1663326955343760100,8.834760009765626,0.37054654605090614,0.3021026494977996,-0.8963805383168161
1663326955353717000,8.844717041015626,0.3283937499761581,0.29786316703082993,-1.0052989590015262
1663326955363674000,8.854674072265626,0.30051030227243897,0.3892334186032414,-1.144558522740379
1663326955373630000,8.8646298828125,0.2604676302194595,0.4330187843158841,-1.2137285050783306
1663326955383587000,8.874587158203125,0.12450433154702185,0.39800037016570566,-1.257410483481735
1663326955393544200,8.884544189453125,-0.09437222813367843,0.3628771804668009,-1.2420939641453326
1663326955403501000,8.8945009765625,-0.31790976536273957,0.33566377751175314,-1.1778192065030335
1663326955413457200,8.90445703125,-0.3954050929754972,0.2577020196973346,-1.0369591487649827
1663326955423414300,8.914414306640625,-0.3558984274953604,0.27004195264205333,-0.9854328135367483
1663326955433371100,8.92437109375,-0.1965717888921499,0.2663833570692688,-1.064747319400683
1663326955443328300,8.934328369140625,0.013106734332442282,0.29653906055390833,-1.0797351182393728
1663326955453284000,8.9442841796875,0.1879535981506109,0.4209334289204329,-1.1478664782445878
1663326955463241200,8.9542412109375,0.3023778497099876,0.493181466996856,-1.1518749101683496
1663326955473198000,8.964197998046876,0.31670155861675736,0.5563228366950527,-1.1612125742908566
1663326955483155200,8.9741552734375,0.18821838656663895,0.5323142941959202,-1.2695016110308468
1663326955493111000,8.984111083984375,-0.05449146864414215,0.3740735146006569,-1.2967939609736203
1663326955503068200,8.994068115234375,-0.38109132094085213,0.27543564664544534,-1.2191742763288318
1663326955513025000,9.00402490234375,-0.5937333701461553,0.22914657274987546,-1.1650517871275543
1663326955522982100,9.013982177734375,-0.5434919601619244,0.250624135466665,-1.2394579165533184
1663326955532938200,9.023938232421875,-0.23349662118554113,0.22907551680766045,-1.3996261205472051
1663326955542895000,9.03389501953125,0.13846096070706843,0.31776414634697137,-1.4902005638331175
1663326955552852200,9.043852294921875,0.4305173228889704,0.4535997269865125,-1.54123137062937
1663326955562809300,9.053809326171875,0.6652934624910354,0.47011864438261836,-1.356678666963428
1663326955572765200,9.06376513671875,0.6974357366830111,0.454540149641782,-1.0470303878590463
1663326955582722300,9.073722412109374,0.548285624179244,0.4173836640169844,-0.7084859768770635
1663326955592679000,9.083678955078126,0.307142287632823,0.36490035685747857,-0.44077275944352146
1663326955602636000,9.093635986328126,0.06831541133522986,0.28251491911560295,-0.30887159564346073
1663326955612592000,9.103592041015625,-0.1497217749118805,0.1960127667699009,-0.17995536593832073
1663326955622549000,9.113549072265625,-0.34511516767442224,0.1795486848335713,-0.04317271370701491
1663326955632506000,9.123506103515625,-0.4755407059639692,0.19473975115939973,0.0058882177883759134
1663326955642463200,9.133463134765625,-0.4386041832327843,0.151854403026402,0.18960165761858225
1663326955652419000,9.143419189453125,-0.2962368627369404,0.0917297873334959,0.3155871311014518
1663326955662376200,9.153376220703125,-0.035810733571648594,0.07205474399402738,0.2815466951379552
1663326955672333300,9.163333251953125,0.30881226667165756,0.08087039353642612,0.09496029368732124
1663326955682290200,9.173290283203125,0.6559937192261218,0.09223189163673669,-0.15084643156025557
1663326955692247000,9.1832470703125,0.927855434641242,0.14489756962582467,-0.4200468918768689
1663326955702203100,9.193203125,1.0081611434996127,0.12085567284636199,-0.5945853838656098
1663326955712159500,9.203159423828126,0.847760738185048,0.17061236805357038,-0.6604634119860827
1663326955722116400,9.213116455078126,0.4478747004032135,0.23658117973003534,-0.5847038221247494
1663326955732073200,9.2230732421875,-0.012564882540702819,0.15549655892103909,-0.3557974148062989
1663326955742029300,9.233029296875,-0.3916799349725246,0.03823014273829758,-0.008040098592638968
1663326955751986200,9.242986083984375,-0.638594840657711,-0.013984247819334267,0.4189486117787659
1663326955761943300,9.252943359375,-0.7285948450565338,-0.004324731331318617,0.8103880159936845
1663326955771900400,9.262900390625,-0.6747381671845912,-0.03399498938657343,1.0691089486762881
1663326955781856300,9.272856201171875,-0.6302741715580225,-0.0163911628305912,1.118228149697557
1663326955791813400,9.2828134765625,-0.612456775316596,0.07069061603397131,0.9707899556782096
1663326955801770500,9.2927705078125,-0.537660769790411,0.11263298422843217,0.7310490332756191
1663326955811727400,9.302727294921874,-0.416616223308444,0.07731551406644284,0.511889053543657
1663326955821683500,9.312683349609374,-0.38052375018596646,0.11738931191004812,0.4240026072327047
1663326955831640300,9.322640380859376,-0.40332068840563295,0.10628507650643587,0.475066877907142
1663326955841597400,9.332597412109376,-0.42866555754244323,0.09580079963207244,0.5821664856668561
1663326955851554300,9.34255419921875,-0.46043782937824723,0.09507233922705054,0.5664443812042474
1663326955861510400,9.352510498046875,-0.5372480973362922,0.07379450033344329,0.47123482546359297
1663326955871467300,9.36246728515625,-0.6520908665686845,0.11093947818353772,0.3048312342114746
1663326955881424400,9.37242431640625,-0.7939414697140454,0.07819500031471252,0.15874876565001905
1663326955891381200,9.38238134765625,-0.936553704881668,-0.025458558644354343,0.018838775178417564
1663326955901337300,9.39233740234375,-1.0108978749871254,-0.10481083923541008,-0.16825038816258311
1663326955911294500,9.40229443359375,-0.921271964597702,-0.17292692860625683,-0.3634977235179394
1663326955921251300,9.412251220703125,-0.6993371863901615,-0.231994180733338,-0.5217202002715319
1663326955931208400,9.42220849609375,-0.41752573936879633,-0.15903919996395707,-0.5644030115697533
1663326955941164300,9.432164306640624,-0.10811375323832034,0.04759213758446276,-0.42181737214811144
1663326955951121400,9.442121337890624,0.1387812787026167,0.19938830761760473,-0.15183372556455432
1663326955961078500,9.45207861328125,0.2534258950144052,0.30269473363943394,0.13151837502755223
1663326955971035100,9.46203515625,0.1265495736390352,0.31363997908905145,0.40722617141157386
1663326955980992300,9.4719921875,-0.159450557243824,0.2376561520177871,0.572827725565806
1663326955990948400,9.4819482421875,-0.4070622130215168,0.16889065882749854,0.605030790034309
1663326956000905200,9.4919052734375,-0.5008826524913311,0.07128441720865666,0.5815037839744239
1663326956010862300,9.5018623046875,-0.4295914402157068,-0.023291297607868907,0.5691509367492049
1663326956020819500,9.5118193359375,-0.19034955337643622,-0.0886830035161227,0.4720500873692333
1663326956030775300,9.521775390625,0.11934124969542026,-0.17408428194783626,0.423118956265971
1663326956040732400,9.531732421875,0.39076223560571666,-0.16440927562974392,0.43641376051642
1663326956050689500,9.541689453125,0.5964017125725746,-0.1895110201930627,0.4690929180640727
1663326956060646400,9.551646484375,0.6934498819172382,-0.26482220869977025,0.576124648219347
1663326956070602500,9.5616025390625,0.7093482927948236,-0.3029568917069584,0.7084716560907661
1663326956080559400,9.571559326171876,0.7906137865960597,-0.39868879082128406,0.7502304844118655
1663326956090516200,9.58151611328125,0.9252250861376523,-0.5528008365813643,0.7880161713182926
1663326956100473300,9.591473388671876,1.0216513241916894,-0.7147749940186738,0.8609997205950319
1663326956110429200,9.60142919921875,1.0525473977148532,-0.8540399645850062,0.9722657273191958
1663326956120386300,9.61138623046875,1.0541980875313282,-1.0270642160858958,1.0832619041260332
1663326956130343400,9.621343505859375,1.0045534743964672,-1.1734547276832163,1.1658769128400832
1663326956140300300,9.63130029296875,0.8622136264294386,-1.282178283382952,1.1649000306319444
1663326956150256400,9.64125634765625,0.6858925984054803,-1.3976903301790355,1.1302242924395949
1663326956160213200,9.651213134765625,0.6089250940591097,-1.5785554313734174,1.1715768049821258
1663326956170170400,9.66117041015625,0.6055068100482225,-1.7841662667676805,1.320722241310775
1663326956180127500,9.67112744140625,0.575061402902007,-2.0050784239292145,1.5904130424275993
1663326956190084400,9.68108447265625,0.5166127210646867,-2.2344391143538056,1.9242197573632
1663326956200040400,9.69104052734375,0.2975602202951908,-2.2058274985060096,2.2321873899042606
1663326956209997300,9.700997314453126,-0.172089674064517,-1.9433146261945367,2.497325350022316
1663326956219954200,9.7109541015625,-0.8959253418952227,-2.0932553045541047,2.9314775222823024
1663326956229911300,9.720911376953126,-1.8890297860383987,-2.2840360889546574,3.4368992795079945
1663326956239867400,9.730867431640625,-2.9188159013688564,-2.4164406722322105,4.043283164651692
1663326956249824300,9.74082421875,-3.637019116270542,-2.6305253214612603,4.703195226365327
1663326956259781400,9.750781494140625,-3.97328286896944,-2.8415935454785823,5.184944139319658
1663326956269738500,9.760738525390625,-4.139854071873426,-3.087750326272845,5.398551818686723
1663326956279694300,9.7706943359375,-4.256229457500576,-3.5171059119060635,5.688116948574781
1663326956289651500,9.7806513671875,-4.6311447201550004,-3.7993563348665833,6.0912003210932015
1663326956299608300,9.7906083984375,-5.647016876423359,-3.639398412622511,6.323454833263159
1663326956309565200,9.800565185546875,-7.163763501876592,-3.2537580500751733,6.508059705507755
1663326956319521500,9.810521484375,-8.55515648547709,-3.139920658493042,6.836307325011491
1663326956329478100,9.82047802734375,-9.231263602927326,-2.9417583855390546,7.123161442375182
1663326956339435300,9.830435302734376,-8.937184210485219,-2.527325643749535,7.265449267894029
1663326956349392400,9.840392333984376,-7.831791942289471,-2.520766431364417,7.57746412999928
1663326956359348200,9.85034814453125,-6.447894282880425,-2.7359403371348976,8.054364433878659
1663326956369305300,9.860305419921875,-5.237720620739459,-2.9795979945898052,8.714327056735753
1663326956379262500,9.870262451171875,-4.483708425831795,-3.265875188848376,9.543411736023426
1663326956389219300,9.88021923828125,-4.298818306905031,-3.147966017782688,10.480835209476947
1663326956399176400,9.890176513671875,-4.617430667579174,-2.6339070728540417,11.437854194760321
1663326956409132300,9.90013232421875,-5.19818180655539,-2.0884066954791543,12.024734045749902
1663326956419089400,9.91008935546875,-5.887492104449868,-1.5750211197674273,11.993161680400371
1663326956429046300,9.92004638671875,-6.251245921620726,-1.2560323269963263,11.601955208158492
1663326956439003100,9.930003173828124,-5.905453877598047,-1.1421044075865299,11.16840246309638
1663326956448959200,9.939959228515624,-4.846491936665773,-1.0556202292889356,10.752924303907156
1663326956458916400,9.949916259765626,-3.458926402398944,-0.6590295797906816,10.419755010092258
1663326956468873200,9.959873291015626,-2.0996417907208205,0.24795213977843522,10.034799414938687
1663326956478830300,9.969830322265626,-0.6456102723777294,1.230621553016454,9.560074117010831
1663326956488786400,9.979786376953125,0.8623170868039131,2.419900018905848,9.032170771124958
1663326956498743300,9.989743408203125,2.268396182882786,3.555159455968439,8.477667003083228
1663326956508700400,9.999700439453125,3.500022967419028,4.340681764644384,7.899024234563112
1663326956518657500,10.009657470703125,4.3777953975081445,4.856197045861184,7.606787839639186
1663326956528613400,10.01961328125,4.830135260626673,5.214399366384744,7.42822458564639
1663326956538570500,10.029570556640625,4.723146712026,5.575320005956292,7.044577150481939
1663326956548527400,10.03952734375,4.1916614160001275,5.989226385784149,6.607746406662463
1663326956558484200,10.049484130859375,3.687802962568402,6.198948163628578,6.221060626715421
1663326956568441300,10.05944140625,3.434906059864163,6.284681158232688,5.773903719192743
1663326956578397200,10.069397216796874,3.403006946778297,6.951412544572353,5.116721666964888
1663326956588354300,10.079354248046876,3.468912958884239,8.490207920226455,3.990370489631593
1663326956598311400,10.0893115234375,3.481092641499638,10.051531938552856,2.313856642200798
1663326956608268300,10.099268310546876,3.307335911005735,10.793189678800106,0.5779967622341587
1663326956618224400,10.109224365234375,2.9362387453347445,10.440255361807345,-0.8180763785392046
1663326956628181500,10.119181396484375,2.061286633363366,9.96832641659975,-1.1143031582735479
1663326956638138400,10.129138427734375,0.9938841963440179,9.351192881643772,-0.04037281732279807
1663326956648095500,10.139095458984375,0.1499871478497982,8.787237979167699,0.9723733524121344
1663326956658051300,10.14905126953125,-0.45110769097507,8.88390211763084,0.9715941847331822
1663326956668008400,10.159008544921875,-0.6012146658122539,9.543077389502525,0.19837313922569155
1663326956677965300,10.16896533203125,-0.4689841239273548,10.615126775544882,-0.7830439358636736
1663326956687922200,10.178922119140625,-0.31697745294868945,11.47569847998619,-1.393888599808514
1663326956697878300,10.188878173828124,0.09532967498898505,10.812612172150612,-1.9216599898777902
1663326956707836000,10.1988359375,0.4816898762434721,9.867040463554858,-2.109045286621153
1663326956717793000,10.20879296875,0.6875222454339266,9.401451242762803,-1.477397780883312
1663326956727750100,10.218750244140624,1.1751648926019669,9.05613324599266,-1.0392996474765241
1663326956737707000,10.22870703125,2.0574831494271755,8.901201042956114,-0.9448916173771024
1663326956747663000,10.2386630859375,3.1828233961522576,8.71332752430439,-1.1004868143670261
1663326956757620200,10.2486201171875,4.384453686353564,8.185411903458833,-2.0353423370286823
1663326956767576800,10.258576904296875,5.323356000187993,7.516116219589113,-3.2564445126801727
1663326956777534000,10.268533935546875,5.809000167015195,7.143425647246837,-4.426414174726605
1663326956787490000,10.278489990234375,5.937188155511021,6.713564742439985,-5.768538977289199
1663326956797447000,10.288447021484375,5.880797575247287,5.981767886471748,-6.791944451671839
1663326956807404000,10.298404052734375,5.7171483972698445,5.048353648659587,-7.2698787747740745
1663326956817361200,10.308361083984375,5.2950855989933014,4.439031956498325,-7.1671771097123615
1663326956827317000,10.31831689453125,4.7600382265716785,4.028313266795873,-6.39100276735723
1663326956837274000,10.328274169921874,4.251978814318776,3.49998205088675,-5.377892477017641
1663326956847231000,10.33823095703125,3.7353093946307894,3.3249759048536416,-4.363545338359475
1663326956857188000,10.34818798828125,3.209783299270272,3.3423192538425326,-3.2776740554526445
1663326956867144200,10.358144287109376,2.838056019002199,2.962509497144818,-2.439254853847623
1663326956877101000,10.36810107421875,2.539811908096075,2.303805057655275,-2.234650272886455
1663326956887058000,10.378057861328125,2.0205834515750407,1.7710165700763463,-2.413279139461368
1663326956897015000,10.38801513671875,1.2260083601325749,1.7710501800850034,-2.721418183046579
1663326956906972000,10.397971923828125,0.31733050417006015,1.910728407627344,-2.971815670150518
1663326956916928000,10.407927978515625,-0.544324319332838,1.7913535479232667,-2.989209288021922
1663326956926885000,10.417885009765625,-1.2099947984427213,1.7412100453555583,-2.6220783956333995
1663326956936842000,10.427842041015625,-1.4015999048382044,1.889847824423015,-2.0235753268674013
1663326956946799000,10.437799072265625,-1.0887503454744816,1.9920503077909348,-1.5511314178749918
1663326956956755000,10.4477548828125,-0.5319301171839237,1.9660805847540497,-1.3139748128771782
1663326956966712000,10.457712158203124,-0.11558978820741175,2.0385259355008603,-1.1050970846414565
1663326956976669200,10.467669189453124,-0.03014671646058559,2.419210721467435,-0.7103129000432788
1663326956986625800,10.477625732421876,-0.18903788625597953,2.6269191136628387,-0.3701240828551352
1663326956996582100,10.48758203125,-0.4732756836414337,2.763110668133199,0.0077872928753495215
1663326957006539000,10.4975390625,-0.8321025658041238,3.04761500750035,0.6588539309628307
1663326957016495900,10.507495849609375,-1.0608224741071461,3.310445567458868,1.2557282294832168
1663326957026453000,10.517452880859375,-1.0007353774130343,3.3179899914890525,1.4774810752525924
1663326957036410000,10.52741015625,-0.6802794346988201,3.0320661407127973,1.1861989123135805
1663326957046366000,10.537365966796875,-0.31258477094769477,2.7126667213141915,0.7048087496690452
1663326957056323000,10.547322998046875,0.01930266636312008,2.2422563639760016,0.3941933790981769
1663326957066280200,10.5572802734375,0.16446283244788645,2.138886298133433,-0.07629501191228627
1663326957076237000,10.567237060546875,-0.04279635467529297,2.3832690549924966,-0.9413216499358416
1663326957086193200,10.577193115234374,-0.5547825849831104,2.6396786419928073,-1.485001826146245
1663326957096150000,10.58714990234375,-1.3131851238042116,3.1067540096893906,-1.5492102405540644
1663326957106107000,10.59710693359375,-2.0745716468721627,3.5431522073104977,-1.2924427800267935
1663326957116064000,10.60706396484375,-2.5294074184596536,3.721233523005247,-0.7794502952858805
1663326957126019800,10.617019775390625,-2.4916075568974017,3.3181153714343905,-0.656836307530105
1663326957135977000,10.62697705078125,-1.9925170485198496,2.522562082609534,-0.8991245763279497
1663326957145934000,10.63693408203125,-1.3037386655449867,2.45097217964828,-1.1335568709284067
1663326957155891000,10.646890869140625,-0.5111106165170669,2.745095118971169,-1.342521839056164
1663326957165848000,10.65684814453125,0.18721300891637802,3.0400092086717483,-1.344386756145209
1663326957175804000,10.666803955078125,0.5043459446877241,3.4373668970197437,-1.1531474143221974
1663326957185761000,10.676760986328125,0.5112561624675989,3.8959722502738234,-0.8960627045392989
1663326957195718100,10.68671826171875,0.28832828156948087,4.346617584434151,-0.817077722890675
1663326957205675000,10.696675048828125,-0.04700082062780857,4.790377250733972,-1.0424823691658676
1663326957215631000,10.706631103515624,-0.21053893944621085,4.896785369098186,-1.5988525156013667
1663326957225588000,10.716587890625,0.013240589845180511,4.014409244605899,-2.1836809870190916
1663326957235544800,10.726544921875,0.29457740509212016,3.201331405006349,-2.2728718669921157
1663326957245502000,10.736501953125,0.4811187983572483,3.1767356006711718,-1.9149555238030849
1663326957255458000,10.7464580078125,0.8947299946308136,3.404078083141148,-1.423292681208253
1663326957265415000,10.756414794921875,1.4510311674833296,3.467332703955471,-1.0528707844503222
1663326957275372000,10.7663720703125,1.8229063317894934,3.6253356927394864,-0.7626441219136119
1663326957285329200,10.7763291015625,2.0073498759925363,4.04118736141622,-0.5892709108445793
1663326957295286000,10.7862861328125,2.046411135792732,4.370354433852434,-0.69750054554753
1663326957305242000,10.7962421875,1.8671523007512092,4.702599890820681,-1.115615994437784
1663326957315199000,10.806198974609375,1.7012193957507609,4.776668458855152,-1.7187039067760108
1663326957325156000,10.816156005859375,1.7741314872264862,3.7925761732071637,-1.8526145107023417
1663326957335113000,10.826113037109375,1.869552932152152,3.093369042937457,-1.6066607051342725
1663326957345069000,10.836069091796874,1.8834627995610236,2.9540660784482955,-1.253715720617026
1663326957355026000,10.84602587890625,1.725874529057741,3.016928485074639,-0.8259126251228153
1663326957364983000,10.855983154296876,1.204957973319292,3.482604507367313,-0.45197022608853876
1663326957374940000,10.86593994140625,0.42125148189365863,3.85216087333709,-0.03253695433167741
1663326957384896000,10.87589599609375,-0.282257437223196,4.140358514264226,0.2982307034352794
1663326957394853000,10.88585302734375,-0.8525321903705596,4.410720054249465,0.4736117837280035
1663326957404810000,10.89581005859375,-1.1077157427072524,4.244161126305163,0.557283973344788
1663326957414767000,10.90576708984375,-0.8281208026915788,3.349002384868264,0.5547604827491566
1663326957424724200,10.91572412109375,-0.09497311663627624,2.3556302296996114,0.6707273971732706
1663326957434680000,10.92568017578125,0.7780190934389829,1.7246183915168045,1.402078043743968
1663326957444637200,10.93563720703125,1.490415667888522,1.629541522245109,2.311001691161096
1663326957454593800,10.94559375,1.8267752821773289,1.9014970534235238,2.9522388630211354
1663326957464551000,10.955551025390625,1.5966384928137063,2.275370405809581,3.1686200987547632
1663326957474507000,10.965507080078124,0.6571890664905309,2.7495944762170312,2.7082249394744635
1663326957484463900,10.9754638671875,-0.6254653099715709,3.0103219264164567,1.9821347707152366
1663326957494421000,10.9854208984375,-1.8668249684929847,2.8332994721248745,1.3276536480091512
1663326957504378000,10.995378173828126,-2.7764205238223076,2.255124613377452,0.6524594806853682
1663326957514335000,11.0053349609375,-3.1914334035873413,1.257564358869195,0.14365224573984742
1663326957524291000,11.015291015625,-3.061315908333659,0.6131004800476133,0.3242682675439864
1663326957534248200,11.025248291015625,-2.48331143771708,0.7467838510893284,1.191122778581828
1663326957544205000,11.035205078125,-1.8351152404993771,0.9874879194356501,2.426395810665935
1663326957554162000,11.045161865234375,-1.4757593660265207,1.1649838364578782,3.743113346379995
1663326957564118000,11.055117919921875,-1.7116308996498584,1.1490224433466791,4.472998815768957
1663326957574075000,11.065074951171875,-2.4757500625520943,1.1090279943495989,4.3105897009804846
1663326957584032000,11.075031982421875,-3.2197990818500517,1.0396094440780579,3.8866006108164783
1663326957593988900,11.08498876953125,-3.570682896053791,1.0637990056999027,3.3501834113463755
1663326957603945000,11.094945068359374,-3.6895857543319464,0.7013869585268199,2.7475270222932098
1663326957613902000,11.104902099609374,-3.5920313890308138,0.21095701872780917,2.978585894937813
1663326957623859000,11.11485888671875,-3.912461612781882,-0.21658632985167203,3.7388045432701706
1663326957633816000,11.124816162109376,-4.845141691100597,-0.5877408517330884,4.451905758857727
1663326957643773200,11.134773193359376,-5.964523321682214,-0.6895766937457025,5.070657834926247
1663326957653729000,11.14472900390625,-6.696530021008849,-0.7941635880321264,5.76294218019545
1663326957663686100,11.15468603515625,-6.879549669888616,-0.9775595228783786,5.980697626891732
1663326957673643000,11.16464306640625,-6.576164104440808,-1.209393763809651,5.849623269304633
1663326957683600000,11.174599853515625,-6.076755031633377,-1.3881151309736073,5.576241212454438
1663326957693556000,11.184555908203125,-5.415229397243261,-1.4836501192763447,4.95246692430973
1663326957703512800,11.194512939453125,-4.6711277709752315,-1.6208160717368125,4.326504186210036
1663326957713470500,11.204470458984375,-4.027162343195081,-1.9161032325334846,4.0355765357971185
1663326957723427300,11.21442724609375,-3.6353953144609927,-2.13564570877701,3.8344434303387995
1663326957733384400,11.224384521484374,-3.3576322660475966,-2.0811156616881488,3.193610163104534
1663326957743340500,11.234340576171874,-3.135781658992171,-2.170007412584126,2.3580083570078014
1663326957753297400,11.24429736328125,-3.2236575108438728,-2.2402178438857194,1.6898714877843857
1663326957763254500,11.254254638671876,-3.7247067520737644,-2.2007579401567576,1.354242525857687
1663326957773211400,11.26421142578125,-4.093513176459074,-2.321248359887302,1.2008800563558935
1663326957783167500,11.27416748046875,-4.016621659958362,-2.421861235976219,1.266034957833588
1663326957793124400,11.284124267578125,-3.745260295280814,-2.2266388158664108,1.654929938262701
1663326957803081200,11.294081298828125,-3.4207647217869757,-1.8176101250775156,2.0325629354432224
1663326957813038300,11.304038330078125,-2.898845711007714,-1.3817895812138914,2.134557036757469
1663326957822994400,11.313994384765625,-2.254499174955487,-1.0987412858739494,2.140866366034746
1663326957832951300,11.323951416015625,-1.8453946424514054,-0.9380296226531266,2.2550413190081713
1663326957842908400,11.333908447265625,-1.6919623225837945,-0.7672858102396131,2.3489371618017554
1663326957852865500,11.343865478515625,-1.5819126328468323,-0.6877418064687401,2.4974901851952076
1663326957862822400,11.353822509765624,-1.3667016099363565,-0.6386820074845105,2.650692203438282
1663326957872778500,11.363778564453124,-0.9600544074565172,-0.39543030048198996,2.811028019084036
1663326957882735600,11.373735595703126,-0.40710605216324325,-0.2695144216366112,2.9375016048774123
1663326957892692200,11.383692138671876,0.21682547236979005,-0.29174861140698194,2.902833903861046
1663326957902649300,11.3936494140625,0.7658388263016939,-0.2635357856184244,2.478828447084129
1663326957912605200,11.403605224609375,1.0846002400577068,-0.34038667784780263,1.9927998109839855
1663326957922562300,11.413562255859375,1.1301175441294908,-0.41024624988511205,1.6466532544352113
1663326957932519400,11.42351953125,0.9564636894881725,-0.4771639232516289,1.4123057155087588
1663326957942476300,11.433476318359375,0.6738520319998264,-0.6170360659308731,1.2723211984962224
1663326957952433400,11.443433349609375,0.30367899543642995,-0.7417723065376282,1.1328212501302362
1663326957962389500,11.453389404296875,-0.03217851454913616,-0.809423701006174,1.0620531849458814
1663326957972346400,11.463346435546875,-0.35036885041892524,-0.7417536018371581,1.199564589843154
1663326957982303500,11.473303466796875,-0.5495990448653698,-0.72967898703143,1.36652260010764
1663326957992260400,11.48326025390625,-0.5922200429737567,-0.6849348592892289,1.4586534790553152
1663326958002216400,11.493216552734374,-0.5815922659754753,-0.49940483502373095,1.4898334840863943
1663326958012173300,11.50317333984375,-0.5336053569197654,-0.3121133540436625,1.495118292621523
1663326958022130400,11.51313037109375,-0.44553953545391556,-0.29917145488411184,1.4641960617437957
1663326958032087300,11.52308740234375,-0.4224672874242067,-0.30470000904724,1.2837342806532979
1663326958042043400,11.53304345703125,-0.5655190830528736,-0.23202508732825516,0.9189914524450897
1663326958052000300,11.543000244140625,-0.7549146967053413,-0.23487857706323265,0.698734690452367
1663326958061957400,11.552957275390625,-0.8888707472085953,-0.29495398331955075,0.6004176702156663
1663326958071914500,11.56291455078125,-0.8980430647015571,-0.31384193140193817,0.5335727698244154
1663326958081871400,11.572871337890625,-0.7792693857610226,-0.21382672894522547,0.5334944438911974
1663326958091827500,11.582827392578125,-0.5517237819343805,-0.1249326399616897,0.6976321360379457
1663326958101784600,11.59278466796875,-0.3209235602259636,-0.05290098458230495,0.9332166694134473
1663326958111741200,11.6027412109375,-0.11540566381216048,-0.0498465654477477,1.0325051650308072
1663326958121698300,11.6126982421875,0.052504678741097446,-0.0006295300751924514,0.9244410961531102
1663326958131654400,11.622654296875,0.11405249563753604,0.017772095794975757,0.6998441129989922
1663326958141611300,11.632611328125,-0.024970775127410888,0.015432839192450046,0.43094840778261423
1663326958151568400,11.642568359375,-0.2740437356293201,0.00435074255540967,0.18296039297319946
1663326958161525500,11.652525390625,-0.5031096808910369,-0.03160319887921214,0.013327391345798969
1663326958171482400,11.662482421875,-0.601041062811017,-0.08860022060349583,-0.12154825822040438
1663326958181438500,11.6724384765625,-0.5284101263642311,-0.11244520657137036,-0.21319946389235556
1663326958191395300,11.682395263671875,-0.3213444159865379,-0.14158186920657753,-0.20500264036804436
1663326958201352400,11.6923525390625,-0.027436872979998587,-0.08210486723482609,-0.06571195083856582
1663326958211309300,11.702309326171875,0.2814519660592079,0.0060232058122754095,0.054538011199608445
1663326958221265400,11.712265380859375,0.5174965181618929,-0.018864713337272406,0.12491992661058902
1663326958231222300,11.72222216796875,0.5807055462688208,-0.01773790126442909,0.10765066577121615
1663326958241179400,11.732179443359374,0.4470312353163957,-0.04458543004915118,-0.011375234364718198
1663326958251136300,11.74213623046875,0.16652911732792852,-0.06280468508973718,-0.20433672380521892
1663326958261093400,11.75209326171875,-0.18946750984489916,-0.05864800380170345,-0.3537736173611134
1663326958271049500,11.762049560546876,-0.43577743537425995,-0.11827537402957677,-0.3872618993345648
1663326958281006300,11.77200634765625,-0.5884452006101608,-0.19270503046140072,-0.36170733296982943
1663326958290963500,11.78196337890625,-0.6575117225736379,-0.2279005547441542,-0.32502989956624806
1663326958300920600,11.791920654296876,-0.650284693929553,-0.24083909290283917,-0.3103029436208308
1663326958310876400,11.80187646484375,-0.5656710587441921,-0.08245718780383467,-0.3901562325365841
1663326958320833500,11.81183349609375,-0.4314788613975048,-0.010939034904539584,-0.6113428227253258
1663326958330790400,11.821790283203125,-0.3861427591115236,-0.025311405258625744,-0.9103243079952895
1663326958340747300,11.831747314453125,-0.40758477559089656,-0.027909312797337767,-1.032314830090478
1663326958350704400,11.841704345703125,-0.3910743702948093,-0.0612730916082859,-0.9739122524172067
1663326958360660200,11.85166015625,-0.33314474389553067,-0.09365852690637111,-0.7852724255681037
1663326958370617300,11.861617431640624,-0.18065058166086673,-0.07876198654770851,-0.5375734568331391
1663326958380574500,11.871574462890624,0.01770925969183445,-0.05717515477016568,-0.3384808442264795
1663326958390531300,11.88153125,0.2162614087462425,-0.03013137276098132,-0.26755159713104365
1663326958400487400,11.8914873046875,0.39717619430124756,0.04464052123725414,-0.2543574767760932
1663326958410444500,11.901444580078126,0.4795318214267492,0.10405746358484029,-0.1798808393973857
1663326958420401400,11.9114013671875,0.37642975887060165,0.06585720452815294,-0.11660554112121461
1663326958430358500,11.921358642578125,0.15829788007736206,0.04591945513188839,-0.039172757350653405
1663326958440315400,11.9313154296875,0.034845103409886356,-0.003310439722239971,0.13633447007238864
1663326958450271500,11.941271484375,0.08431494449973106,-0.01155555936768651,0.2325944116488099
1663326958460228400,11.951228271484375,0.20439093821048734,0.027844723128527402,0.23100699632689356
1663326958470185200,11.961185302734375,0.30723347304761406,0.0745109049744904,0.26557415957823394
1663326958480142300,11.971142333984375,0.38300036943256854,0.09058043463528155,0.3103263244964182
1663326958490098400,11.981098388671874,0.4014923039346933,0.07920768448859453,0.39115196557566523
1663326958500055300,11.99105517578125,0.30219372531473637,-0.03541165125146508,0.4147355241283774
1663326958510012400,12.001012451171874,0.1655892061293125,-0.09679536362737416,0.3871336698450148
1663326958519969500,12.010969482421874,-0.005789689317345619,-0.015476386073231697,0.24249022111073135
1663326958529926400,12.020926513671874,-0.1267033028960228,0.014026771786808967,0.04969385910406708
1663326958539882500,12.030882568359376,-0.18722294578850268,-0.06307955650836229,-0.03649637774825096
1663326958549839600,12.040839599609376,-0.2224871513932943,-0.10206175972297787,0.029222879613935944
1663326958559796200,12.050796142578125,-0.274793677213788,-0.013487988734990358,0.14113836322277784
1663326958569753300,12.06075341796875,-0.19234452658593654,0.017328589811176062,0.18693185388743877
1663326958579709200,12.070709228515625,-0.010302782827615738,-0.07414382522776722,0.20723770594373345
1663326958589666300,12.080666259765625,0.09495382741391659,-0.12897080943658948,0.27322292076572774
1663326958599623400,12.09062353515625,0.08834463840723038,-0.02941752540320158,0.3302148279234767
1663326958609580300,12.100580322265625,0.11268822154700756,0.18948855263292788,0.3282955502986908
1663326958619537400,12.110537353515625,0.10219956075847149,0.13002426401227712,0.28100875233635303
1663326958629493500,12.120493408203124,-0.09716390467882156,-0.04754033433198929,0.14559358906596898
1663326958639450400,12.130450439453124,-0.36906653662621974,-0.11036007086038589,0.023173224186152218
1663326958649407500,12.140407470703124,-0.5793401031345129,-0.164019764855504,-0.08372633095681667
1663326958659364400,12.1503642578125,-0.6506313154101372,-0.218168411411345,-0.1913350572824478
1663326958669320400,12.160320556640626,-0.5892623622119426,-0.2428990941725671,-0.28469270154610277
1663326958679277300,12.17027734375,-0.41998716104626654,-0.19207593877762555,-0.324230346686393
1663326958689234400,12.180234375,-0.19408581729531288,-0.10942439744547008,-0.2792566479720175
1663326958699191300,12.19019140625,0.03102525286078453,-0.08448372519537806,-0.15221329946666956
1663326958709147600,12.200147705078125,0.2386789922595024,-0.16366159906759858,-0.098230803257972
1663326958719103500,12.210103515625,0.3646937283694744,-0.14817001542523503,-0.11347338057532906
1663326958729060600,12.220060546875,0.4702139579832554,0.017478081284463404,-0.13245748250856995
1663326958739017700,12.230017822265625,0.5884966385364532,0.0032993338063359258,-0.14407164019569754
1663326958748974600,12.239974609375,0.6548755288511514,-0.10965192259103058,-0.2354204288549721
1663326958758930700,12.2499306640625,0.5917910039067268,-0.03704582832455635,-0.3252631968654692
1663326958768887600,12.259887451171876,0.4488210413426161,0.035754034948348994,-0.3135334499746561
1663326958778844700,12.2698447265625,0.2766273223817348,0.0007933423347771168,-0.23687413479462266
1663326958788801800,12.2798017578125,0.06313479382693767,-0.044751288135349745,-0.14913564558699727
1663326958798758700,12.289758544921876,-0.10504033714234828,0.010610387472063302,-0.062219724808633324
1663326958808714800,12.29971484375,-0.16551497184932232,-0.006679623894393444,-0.003964227455854416
1663326958818671600,12.309671630859375,-0.1451677648693323,-0.08723097807690501,-0.0021557167291641234
1663326958828628500,12.31962841796875,-0.11137363181710243,-0.1375904614828527,0.02230535531044006
1663326958838585600,12.329585693359375,-0.07524374929368495,-0.03086991616860032,0.04140475418642163
1663326958848541700,12.339541748046875,-0.011688099706172942,0.001852349868416786,-0.010191869799047707
1663326958858498600,12.34949853515625,0.029584406402707097,-0.09423778809905052,-0.05694806801602244
1663326958868455700,12.35945556640625,0.04441781839728355,-0.08754968863725662,0.014421470192819833
1663326958878412800,12.369412841796875,0.0805792651027441,0.025019436574727296,0.17352847469598054
1663326958888369700,12.37936962890625,0.12276654796898365,0.1460210206978023,0.3000616817221045
1663326958898325800,12.38932568359375,0.06068623163104057,0.15307444634065032,0.29848215744569895
1663326958908283000,12.399282958984376,-0.06244914965033531,0.05331204960122704,0.21364903429076074
1663326958918239500,12.409239501953126,-0.24475626634657383,-0.012895721930265426,0.12826514538526534
1663326958928196600,12.419196533203126,-0.4485977539807558,-0.06944134662523865,0.009186492148786782
1663326958938152400,12.42915234375,-0.5815092638671397,-0.12813275117725134,-0.07380567931458354
1663326958948109600,12.439109619140625,-0.580792640030384,-0.14970321634188294,-0.07904577192515135
1663326958958066700,12.449066650390625,-0.4505050489068031,-0.08267419155538082,-0.03650456105470657
1663326958968023600,12.4590234375,-0.2767681921571493,-0.0652209524512291,-0.05973068447187543
1663326958977980700,12.468980712890625,-0.10614508351385593,-0.06360343425199388,-0.10861103523597121
1663326958987936800,12.478936767578125,0.04740647881925106,-0.03272957256063819,-0.12692498282268644
1663326958997893600,12.4888935546875,0.1330167238265276,-0.029937019232660532,-0.119301648337394
1663326959007850800,12.498850830078124,0.13317922091186046,-0.049046939502656456,-0.10595891329199075
1663326959017807600,12.5088076171875,0.11025894857347011,-0.04815086744576692,-0.0621183102607727
1663326959027763700,12.518763671875,0.08654489550888537,-0.07710691281706095,-0.043856385122239584
1663326959037720600,12.528720458984376,0.06040332303643226,-0.10451090644076466,0.008154080361127853
1663326959047677700,12.538677734375,-0.0064554597496986384,-0.10503756066337228,0.07392360660582781
1663326959057634600,12.548634521484376,-0.06644318772256375,-0.09466916525363922,0.10619491400495171
1663326959067591700,12.558591796875,-0.08475158235132693,-0.07910466250553727,0.08501885498538612
1663326959077547500,12.568547607421875,-0.0815507404834032,-0.05304404631480574,0.024841011267900465
1663326959087504600,12.578504638671875,-0.09840952082574367,-0.028829057990759608,-0.041997605513036246
1663326959097461800,12.588461669921875,-0.12499240732491015,-0.07015037167742848,-0.10117679358199239
1663326959107418600,12.598418701171875,-0.14898995350599287,-0.07660393173098563,-0.1323228963434696
1663326959117374700,12.608374755859375,-0.16317279263734816,-0.08241802483722567,-0.09964607688337564
1663326959127331800,12.618331787109375,-0.13923954386413095,-0.06518485822454094,0.010086217467486858
1663326959137288400,12.628288330078124,-0.04743687395751476,-0.06470335831791162,0.17186872479021548
1663326959147245600,12.63824560546875,0.051965749558806416,-0.022022446715831756,0.31589813327938315
1663326959157202700,12.64820263671875,0.09718670103251933,0.026976708122342822,0.41760830308571456
1663326959167158500,12.658158447265626,0.05766717607080936,0.0038397242933511733,0.4348173581704497
1663326959177115600,12.66811572265625,0.004130816194415092,0.026874124530702828,0.35844869650006295
1663326959187072800,12.67807275390625,-0.07848667673766613,0.012925532546639442,0.21716420280486343
1663326959197029600,12.688029541015625,-0.21219547448158263,-0.03910466055050492,0.12075944593027234
1663326959206986800,12.69798681640625,-0.33422260226011274,-0.07355886494666337,0.09676073070541023
1663326959216942600,12.707942626953125,-0.30864275532364843,-0.1294476331681013,0.1341791917346418
1663326959226899700,12.717899658203125,-0.17470950117409229,-0.1595512411393225,0.21796908944696186
1663326959236856600,12.727856689453125,-0.019943302354216576,-0.1176518353037536,0.25061624442115427
1663326959246813400,12.7378134765625,0.1315478203177452,-0.053356473264843225,0.20079919732883572
1663326959256769500,12.74776953125,0.2958487402021885,-0.040147155340760944,0.10378931416794657
1663326959266726700,12.7577265625,0.39050738406181335,-0.009056289897859096,0.03748217391520738
1663326959276683500,12.76768359375,0.3466179734528064,-0.013604162460565566,0.018399726174026725
1663326959286640600,12.777640625,0.29120880544185634,-0.04950710436031222,0.031212299865484235
1663326959296597800,12.78759765625,0.24420973837971685,-0.0586969575099647,0.040845951259881254
1663326959306553600,12.7975537109375,0.22882219963371753,-0.05184709161520004,0.04733136775642633
1663326959316510700,12.8075107421875,0.2294207500487566,-0.02271861228644848,0.0708107352823019
1663326959326467800,12.8174677734375,0.22164836248159409,-0.01599777959883213,0.05769406407773495
1663326959336424700,12.8274248046875,0.196045719191432,-0.00373114935234189,0.06504895688518882
1663326959346380800,12.837380859375,0.12526654809117316,0.026862287962436674,0.07168576455116271
1663326959356337700,12.847337646484375,0.041889761224389074,0.016484832463413476,0.05993862813413143
1663326959366294500,12.85729443359375,-0.005823007065057754,0.004072217874974012,0.03160349114015698
1663326959376251600,12.867251708984375,-0.024137831434607505,0.02901274399459362,0.027578473407775164
1663326959386208500,12.87720849609375,-0.061032268589735025,-0.0015383154831826685,0.04973667533248663
1663326959396164600,12.88716455078125,-0.13125965102612971,0.009793956522643565,0.07786299188137054
1663326959406121700,12.897121826171874,-0.19044892209768294,0.004300473672896623,0.0731343559242785
1663326959416078600,12.90707861328125,-0.2030377700358629,-0.044762832442671055,0.04725640282407403
1663326959426035700,12.91703564453125,-0.21775018599927423,-0.036911242159456015,0.045602205876260994
1663326959435992800,12.926992919921876,-0.2543207980275154,-0.021761311561614274,0.04054609153047204
1663326959445948700,12.93694873046875,-0.2558329561561346,-0.08679682444334029,0.057587534963339564
1663326959455905800,12.94690576171875,-0.27127543995976444,-0.1258062079258263,0.11073036547750234
1663326959465862700,12.956862548828125,-0.2879524339944124,-0.07963701581656932,0.15863193433731793
1663326959475819500,12.966819580078125,-0.2913502597391605,-0.08721797246485948,0.1485910173162818
1663326959485775600,12.976775634765625,-0.26621348039507864,-0.11963628711923956,0.08378624445050954
1663326959495732500,12.986732421875,-0.24929975499510765,-0.10021130955070257,0.04648658749535679
1663326959505689600,12.996689697265625,-0.2757353419780731,-0.09656856913417577,0.029570231746882197
1663326959515646700,13.006646728515625,-0.3330874607503414,-0.08025295575782657,-0.04210018910467624
1663326959525603600,13.016603515625,-0.34836569390296934,-0.08874678946733475,-0.10467954100593924
1663326959535559700,13.0265595703125,-0.28174656509160995,-0.12450842320024967,-0.1290337916702032
1663326959545516800,13.036516845703124,-0.2413327216386795,-0.10793386662676929,-0.10654241226837038
1663326959555473700,13.0464736328125,-0.2120750629723072,-0.11835720709413289,-0.11845540677160024
1663326959565430500,13.056430419921876,-0.12922317676246164,-0.11467486531957984,-0.13452055251821876
1663326959575386600,13.06638671875,-0.028145898032188414,-0.06586860270500183,-0.14253595506101846
1663326959585343500,13.076343505859375,0.09224164584577083,-0.05471285630986094,-0.11295461739823222
1663326959595300600,13.086300537109375,0.184581491369009,-0.054402767447382205,-0.11383183862417935
1663326959605257700,13.0962578125,0.20156068322062493,-0.03218114489763975,-0.1402126266799867
1663326959615214600,13.106214599609375,0.16077449932396412,-0.03348667453825473,-0.15869287074431776
1663326959625170700,13.116170654296875,0.11984218495488166,-0.06484744296371936,-0.11638619928210973
1663326959635127600,13.12612744140625,0.12563655044734479,-0.02524550041556358,-0.050044718368351455
1663326959645084700,13.136084716796875,0.13047989882528782,0.03587283902242779,-0.008131430137902497
1663326959655041800,13.146041748046875,0.1312245797127485,0.05156885919570923,0.022779110302031037
1663326959664998700,13.15599853515625,0.09703647890686988,0.007672872715443372,0.02436550271064043
