time,seconds_elapsed,z,y,x
1663326947268860700,0.759860595703125,1.544007658958435,-0.05070672556757927,-0.009774254634976387
1663326947278816800,0.769816650390625,1.538340449333191,0.02120218239724636,0.02189280465245247
1663326947288773600,0.779773681640625,1.5994371175765991,0.007819531485438347,0.010326430201530457
1663326947298730500,0.78973046875,1.6773823499679565,-0.013687700033187866,0.004110695328563452
1663326947308687600,0.7996875,1.7801721096038818,0.014399860054254532,0.0068857092410326
1663326947318643500,0.8096435546875,1.7791657447814941,-0.008414769545197487,-0.0003858190029859543
1663326947328600600,0.8196005859375,1.723353624343872,-0.019222410395741463,0.009838854894042015
1663326947338557700,0.8295576171875,1.7407398223876953,0.004879174754023552,0.013273771852254868
1663326947348513500,0.839513427734375,1.6106579303741455,-0.02551015466451645,-0.0006388486362993717
1663326947358470700,0.849470703125,1.4246962070465088,0.004687706474214792,0.0039006045553833246
1663326947368427800,0.859427734375,1.3415143489837646,-0.02320251241326332,-0.0014930958859622478
1663326947378383600,0.869383544921875,1.4899206161499023,0.0032381329219788313,0.007034320384263992
1663326947388340700,0.8793408203125,1.7276538610458374,0.004054924473166466,0.013086088001728058
1663326947398297600,0.889297607421875,1.8314398527145386,0.008082620799541473,0.012595284730196
1663326947408253700,0.899253662109375,1.7216689586639404,-0.0002658562734723091,0.00330351572483778
1663326947418210800,0.9092109375,1.5036685466766357,-0.02843191847205162,-0.0020965253934264183
1663326947428167700,0.919167724609375,1.3268284797668457,0.0002125101163983345,0.006863679736852646
1663326947438123800,0.929123779296875,1.2384063005447388,-0.0003580464981496334,0.00925805326551199
1663326947448080600,0.93908056640625,1.1850535869598389,0.0034779708366841078,0.010564866475760937
1663326947458037500,0.94903759765625,1.113818883895874,-0.005692585371434689,0.0024788016453385353
1663326947467993900,0.958993896484375,0.8599198460578918,-0.010658316314220428,0.00037969835102558136
1663326947477950500,0.968950439453125,0.5649101734161377,-0.009813401848077774,0.0013748463243246078
1663326947487907600,0.978907470703125,0.29331353306770325,-0.004411180038005114,0.0019692638888955116
1663326947497864700,0.98886474609375,0.08115410804748535,-0.004553848411887884,-0.0014774822629988194
1663326947507820500,0.998820556640625,-0.001144231529906392,-0.0015151817351579666,-0.005896997172385454
1663326947517777700,1.008777587890625,0.001100564026273787,0.005124917719513178,-0.01272265799343586
1663326947527734800,1.01873486328125,0.0015698130009695888,0.004027429036796093,-0.009631793946027756
1663326947537690600,1.028690673828125,0.00012977642472833395,0.0021355520002543926,0.0007770643569529057
1663326947547647700,1.038647705078125,-0.0013485443778336048,0.0010026432573795319,0.015068918466567993
1663326947557604600,1.0486044921875,-0.0016656346851959825,-0.006639568600803614,0.01453182753175497
1663326947567560700,1.058560791015625,0.0005410605226643384,-0.0034352527000010014,0.008488316088914871
1663326947577517800,1.068517822265625,0.0011722731869667768,0.001494592521339655,-0.006783065386116505
1663326947587474700,1.078474609375,0.0009341866243630648,0.0020317521411925554,-0.011706717312335968
1663326947597430800,1.0884306640625,-0.0020063137635588646,0.000057633500546216965,-0.007236859295517206
1663326947607387600,1.0983876953125,0.0008611117955297232,-0.0009330622851848602,0.002782484982162714
1663326947617344500,1.108344482421875,-0.0008734798757359385,-0.0016235671937465668,0.0024391603656113148
1663326947627300900,1.11830078125,0.00044931218144483864,-0.002347148023545742,0.0007682931609451771
1663326947637257500,1.128257568359375,-0.0018308598082512617,0.0016872999258339405,0.002634597010910511
1663326947647214600,1.138214599609375,0.0011148626217618585,-0.002758581191301346,0.002258558291941881
1663326947657170400,1.14817041015625,-0.0011995380045846105,-0.005926572252064943,0.009269936941564083
1663326947667127600,1.15812744140625,-0.0026552220806479454,-0.010190825909376144,0.0038333600386977196
1663326947677084700,1.168084716796875,-0.0007080227369442582,-0.009956385008990765,0.0003020167350769043
1663326947687041500,1.17804150390625,-0.00036926858592778444,-0.0014334702864289284,0.0018341331742703915
1663326947696998000,1.187997802734375,0.00009580660844221711,-0.006959924008697271,-0.0018607685342431068
1663326947706955000,1.197955078125,0.0006971483817324042,-0.010120296850800514,-0.014994680881500244
1663326947716911900,1.207911865234375,0.008796838112175465,-0.002629547379910946,-0.013687152415513992
1663326947726868000,1.217867919921875,0.17826230823993683,-0.037549447268247604,-0.030558012425899506
1663326947736824800,1.227824951171875,0.5977607369422913,-0.07564845681190491,-0.16569660604000092
1663326947746782000,1.237781982421875,0.7303256988525391,-0.14691251516342163,-0.35033196210861206
1663326947756738000,1.247738037109375,0.916856586933136,0.01540142111480236,-0.4083949625492096
1663326947766695000,1.25769482421875,1.2359474897384644,-0.03002411499619484,-0.5718240737915039
1663326947776651800,1.26765185546875,1.4925768375396729,-0.07378164678812027,-0.8739792704582214
1663326947786607600,1.277607666015625,1.5291143655776978,-0.5361612439155579,-0.8437699675559998
1663326947796564700,1.287564697265625,1.204724907875061,-1.5952906608581543,-0.26540082693099976
1663326947806521900,1.29752197265625,0.7679163813591003,-1.5128508806228638,-0.10909564793109894
1663326947816477700,1.307477783203125,0.719985842704773,-1.2014033794403076,-0.10279922187328339
1663326947826434800,1.317434814453125,0.9354385137557983,-1.650856375694275,-0.024245021864771843
1663326947836392000,1.327391845703125,1.3980741500854492,-2.1920814514160156,-0.08385365456342697
1663326947846348800,1.337348876953125,1.7444509267807007,-2.6454172134399414,-0.10834435373544693
1663326947856305000,1.347304931640625,1.7476184368133545,-2.9985978603363037,-0.07481163740158081
1663326947866262000,1.357261962890625,1.4701870679855347,-3.145601987838745,-0.022484509274363518
1663326947876219000,1.367218994140625,1.0982950925827026,-2.6276979446411133,-0.08788011968135834
1663326947886175000,1.377175048828125,0.603330135345459,-1.5937104225158691,-0.304157018661499
1663326947896131800,1.3871318359375,0.0932321846485138,-0.7761414647102356,-0.5423458814620972
1663326947906088700,1.397088623046875,-0.037205714732408524,-0.41682618856430054,-0.5747621059417725
1663326947916045000,1.407045166015625,0.07583125680685043,-0.6017352342605591,-0.3996933698654175
1663326947926001700,1.417001708984375,0.29194703698158264,-0.7586401700973511,-0.1985330879688263
1663326947935958800,1.426958740234375,0.47173672914505005,-0.6009019613265991,-0.034423429518938065
1663326947945914600,1.43691455078125,0.5882470607757568,-0.24891012907028198,0.17819082736968994
1663326947955871700,1.446871826171875,0.7480347752571106,0.028419721871614456,0.37716197967529297
1663326947965828900,1.456828857421875,0.8847897052764893,0.19442225992679596,0.5511758327484131
1663326947975785700,1.46678564453125,0.8629788160324097,0.3380058705806732,0.7132923007011414
1663326947985741800,1.476741943359375,0.6781871318817139,0.49329960346221924,0.7654436230659485
1663326947995699000,1.486698974609375,0.4360460638999939,0.5607001185417175,0.708217203617096
1663326948005655800,1.49665576171875,0.22753389179706573,0.5177968740463257,0.5848219990730286
1663326948015612000,1.50661181640625,0.07908923923969269,0.3611600399017334,0.4594944715499878
1663326948025569000,1.516569091796875,-0.022034980356693268,0.19946862757205963,0.4804585874080658
1663326948035526000,1.52652587890625,-0.06542346626520157,0.07524347305297852,0.6087437272071838
1663326948045482000,1.53648193359375,-0.04043209180235863,0.04486852139234543,0.7879496812820435
1663326948055438800,1.54643896484375,-0.026530656963586807,0.08427984267473221,0.9074811339378357
1663326948065395700,1.556395751953125,-0.47742247581481934,-0.009469550102949142,0.8360673785209656
1663326948075352000,1.56635205078125,-0.6744356751441956,0.15517424046993256,0.8391526937484741
1663326948085308700,1.57630859375,-0.8243532776832581,0.08079294860363007,0.8585498332977295
1663326948095265800,1.586265869140625,-0.8933175802230835,-0.3124192953109741,0.892922580242157
1663326948105223000,1.596222900390625,-0.9741679430007935,-0.5233397483825684,0.8556100726127625
1663326948115178800,1.6061787109375,-0.9855812191963196,-0.46431633830070496,0.7361673712730408
1663326948125136000,1.616135986328125,-1.023780107498169,-0.040097676217556,0.62474524974823
1663326948135092700,1.6260927734375,-1.0115008354187012,0.5610024929046631,0.47129929065704346
1663326948145048800,1.636048828125,-0.9534238576889038,1.0278128385543823,0.332552045583725
1663326948155006000,1.646005859375,-0.9092461466789246,1.271939754486084,0.2808954417705536
1663326948164962800,1.655962890625,-0.9012838006019592,1.298986554145813,0.25440713763237
1663326948174919000,1.6659189453125,-0.8398128151893616,1.1302452087402344,0.24683885276317596
1663326948184876000,1.6758759765625,-0.6960045099258423,0.8050497770309448,0.19074629247188568
1663326948194833000,1.6858330078125,-0.530501663684845,0.4653121531009674,0.11023293435573578
1663326948204789000,1.6957890625,-0.39428067207336426,0.2079935520887375,-0.009165629744529724
1663326948214745900,1.705745849609375,-0.30894735455513,-0.0029254923574626446,-0.14948970079421997
1663326948224702700,1.71570263671875,-0.2689421474933624,-0.18255196511745453,-0.23250070214271545
1663326948234659800,1.725659912109375,-0.26058635115623474,-0.2950003445148468,-0.2391115427017212
1663326948244615700,1.73561572265625,-0.2606111168861389,-0.26983052492141724,-0.18612796068191528
1663326948254572800,1.74557275390625,-0.2478438913822174,-0.18240927159786224,-0.0920531377196312
1663326948264530000,1.755530029296875,-0.20089422166347504,-0.12588340044021606,0.023193826898932457
1663326948274485800,1.76548583984375,-0.13038058578968048,-0.07787957787513733,0.13135218620300293
1663326948284443000,1.77544287109375,-0.03603223338723183,-0.025624630972743034,0.20411162078380585
1663326948294399700,1.785399658203125,0.07445549964904785,0.016160020604729652,0.21812675893306732
1663326948304355800,1.79535595703125,0.1939145177602768,0.03555795177817345,0.17454706132411957
1663326948314313000,1.80531298828125,0.29484155774116516,0.04292985424399376,0.1181231364607811
1663326948324269800,1.815269775390625,0.3791143596172333,0.039357222616672516,0.08333239704370499
1663326948334226000,1.825225830078125,0.4443415701389313,0.024670666083693504,0.059092238545417786
1663326948344182800,1.835182861328125,0.47512584924697876,-0.013799227774143219,0.027838710695505142
1663326948354140000,1.845139892578125,0.4907571077346802,-0.06500667333602905,0.013188067823648453
1663326948364096800,1.8550966796875,0.49029451608657837,-0.10052099078893661,0.026970725506544113
1663326948374052900,1.865052978515625,0.48150262236595154,-0.11186382174491882,0.03788392245769501
1663326948384009700,1.875009765625,0.48121604323387146,-0.09960795193910599,0.05111370235681534
1663326948393966800,1.884966796875,0.4860675632953644,-0.05731882154941559,0.06734216958284378
1663326948403922700,1.894922607421875,0.490389347076416,-0.0037871557287871838,0.0978899598121643
1663326948413879800,1.9048798828125,0.48731735348701477,0.04400476813316345,0.09976237267255783
1663326948423837000,1.9148369140625,0.48183417320251465,0.05663587525486946,0.045222699642181396
1663326948433792800,1.924792724609375,0.4733254313468933,0.012359347194433212,-0.038583505898714066
1663326948443750000,1.93475,0.45979073643684387,-0.05536936596035957,-0.1193838119506836
1663326948453706800,1.944706787109375,0.43796470761299133,-0.13799989223480225,-0.18777212500572205
1663326948463662800,1.954662841796875,0.40455639362335205,-0.18640071153640747,-0.21958252787590027
1663326948473620000,1.964619873046875,0.3805990219116211,-0.2055698186159134,-0.2123546600341797
1663326948483576800,1.974576904296875,0.3587680160999298,-0.17798639833927155,-0.16019344329833984
1663326948493533000,1.984532958984375,0.33923211693763733,-0.10964038223028183,-0.08011801540851593
1663326948503489800,1.99448974609375,0.3263309597969055,-0.006337962578982115,-0.007802807260304689
1663326948513447000,2.004447021484375,0.3173079788684845,0.0865483507514,0.02408020757138729
1663326948523403800,2.01440380859375,0.2998543977737427,0.14524202048778534,0.020623425021767616
1663326948533359900,2.02435986328125,0.2749890387058258,0.14907905459403992,-0.004763007164001465
1663326948543316700,2.034316650390625,0.2577733099460602,0.08731581270694733,-0.024814479053020477
1663326948553273900,2.04427392578125,0.2273605614900589,-0.007209187373518944,-0.03138623759150505
1663326948563229700,2.054229736328125,0.18909573554992676,-0.1101350337266922,-0.0171258095651865
1663326948573186800,2.064186767578125,0.13895083963871002,-0.18259945511817932,0.012680107727646828
1663326948583144000,2.07414404296875,0.07719933986663818,-0.18938013911247253,0.03694842755794525
1663326948593099800,2.084099853515625,0.00764346681535244,-0.1581154763698578,0.02023031748831272
1663326948603057000,2.094056884765625,-0.05982905253767967,-0.13106441497802734,-0.03374583274126053
1663326948613013800,2.104013671875,-0.12311211973428726,-0.11806246638298035,-0.09587173163890839
1663326948622971000,2.113970947265625,-0.1849275529384613,-0.1457577347755432,-0.16313518583774567
1663326948632927000,2.123927001953125,-0.24145199358463287,-0.2021581530570984,-0.1914721578359604
1663326948642883800,2.1338837890625,-0.2948547601699829,-0.2562176287174225,-0.18097157776355743
1663326948652841000,2.143841064453125,-0.33487468957901,-0.29042676091194153,-0.14377346634864807
1663326948662796800,2.153796875,-0.3725549578666687,-0.30638256669044495,-0.0979231595993042
1663326948672754000,2.16375390625,-0.4140489995479584,-0.2890951931476593,-0.06166291981935501
1663326948682710800,2.173710693359375,-0.44538694620132446,-0.24445316195487976,-0.024978406727313995
1663326948692667000,2.1836669921875,-0.48175400495529175,-0.18850098550319672,0.001500268466770649
1663326948702624000,2.1936240234375,-0.5195716619491577,-0.12003616988658905,0.02265482395887375
1663326948712580900,2.203580810546875,-0.5572777390480042,-0.060859959572553635,0.027722660452127457
1663326948722537000,2.213536865234375,-0.5899952054023743,-0.03149301931262016,0.031986117362976074
1663326948732494000,2.223494140625,-0.617049515247345,-0.016021186485886574,0.06343033909797668
1663326948742451000,2.233450927734375,-0.6344205141067505,-0.03465559333562851,0.13728459179401398
1663326948752407000,2.243406982421875,-0.6517245173454285,-0.049554772675037384,0.19966670870780945
1663326948762364000,2.253364013671875,-0.6714188456535339,-0.053884271532297134,0.2414511740207672
1663326948772321000,2.263321044921875,-0.684429407119751,-0.04581059142947197,0.2638567090034485
1663326948782278100,2.273278076171875,-0.7059381604194641,-0.014675842598080635,0.2526160478591919
1663326948792234000,2.28323388671875,-0.7289310097694397,0.011562824249267578,0.22309325635433197
1663326948802191000,2.293191162109375,-0.7490040063858032,0.02205434814095497,0.18976911902427673
1663326948812148000,2.30314794921875,-0.7621207237243652,0.015888024121522903,0.166738823056221
1663326948822104000,2.31310400390625,-0.7666076421737671,-0.01434418000280857,0.17115168273448944
1663326948832061000,2.32306103515625,-0.7647931575775146,-0.05432486534118652,0.19324326515197754
1663326948842018000,2.33301806640625,-0.7551799416542053,-0.07473906129598618,0.22634902596473694
1663326948851974000,2.342973876953125,-0.7406122088432312,-0.08180597424507141,0.2505838871002197
1663326948861931000,2.352930908203125,-0.7341678738594055,-0.08117800205945969,0.2658832371234894
1663326948871888000,2.362887939453125,-0.7426823377609253,-0.06996042281389236,0.2622298002243042
1663326948881844000,2.372843994140625,-0.7521557807922363,-0.08016032725572586,0.24694328010082245
1663326948891801000,2.382801025390625,-0.7569387555122375,-0.09850609302520752,0.22651466727256775
1663326948901758000,2.392758056640625,-0.7509732842445374,-0.11532129347324371,0.2312910556793213
1663326948911714000,2.402714111328125,-0.7338511943817139,-0.13681861758232117,0.2551621198654175
1663326948921671000,2.4126708984375,-0.7155755162239075,-0.14611810445785522,0.27734410762786865
1663326948931628000,2.4226279296875,-0.6976547837257385,-0.14639125764369965,0.2753066420555115
1663326948941585200,2.432585205078125,-0.6830292344093323,-0.1362542062997818,0.2510915696620941
1663326948951541000,2.442541015625,-0.6642137169837952,-0.1359202116727829,0.21237610280513763
1663326948961498000,2.452498046875,-0.6410862803459167,-0.148069828748703,0.16511644423007965
1663326948971455000,2.462455078125,-0.6311254501342773,-0.18823100626468658,0.1165512427687645
1663326948981411000,2.4724111328125,-0.6241815090179443,-0.2406441569328308,0.0849861204624176
1663326948991368000,2.482367919921875,-0.6341997981071472,-0.26674404740333557,0.07574193179607391
1663326949001325000,2.492324951171875,-0.6457027792930603,-0.2831874489784241,0.09935910999774933
1663326949011281000,2.502281005859375,-0.6505908370018005,-0.2972940504550934,0.14179003238677979
1663326949021238000,2.512238037109375,-0.6547272205352783,-0.2988312542438507,0.17851528525352478
1663326949031195000,2.52219482421875,-0.6488393545150757,-0.29197952151298523,0.20244894921779633
1663326949041151000,2.53215087890625,-0.6428366303443909,-0.2869828939437866,0.2059563398361206
1663326949051108000,2.542108154296875,-0.6346772313117981,-0.2759077847003937,0.19330698251724243
1663326949061065000,2.55206494140625,-0.6159921884536743,-0.277487576007843,0.17735572159290314
1663326949071022000,2.56202197265625,-0.6056354641914368,-0.30094093084335327,0.18776658177375793
1663326949080978000,2.57197802734375,-0.5991775989532471,-0.3189375102519989,0.216753751039505
1663326949090935000,2.58193505859375,-0.5977359414100647,-0.3330591022968292,0.248923659324646
1663326949100892200,2.59189208984375,-0.5975841283798218,-0.3298949897289276,0.272052139043808
1663326949110848000,2.601847900390625,-0.5958757400512695,-0.31321001052856445,0.2713698446750641
1663326949120805000,2.61180517578125,-0.5933265686035156,-0.29044318199157715,0.25757279992103577
1663326949130762000,2.621761962890625,-0.5902925133705139,-0.2585931718349457,0.22795379161834717
1663326949140718000,2.631718017578125,-0.5853446125984192,-0.23815205693244934,0.19862760603427887
1663326949150675000,2.641675048828125,-0.5803676247596741,-0.23395414650440216,0.18770021200180054
1663326949160631800,2.6516318359375,-0.5763364434242249,-0.2706000506877899,0.2005331963300705
1663326949170588000,2.661587890625,-0.5586108565330505,-0.3496711850166321,0.21443527936935425
1663326949180545000,2.671544921875,-0.5359137654304504,-0.43859997391700745,0.20360979437828064
1663326949190502000,2.681501953125,-0.5190644264221191,-0.5302064418792725,0.168948233127594
1663326949200459000,2.691458984375,-0.5026838779449463,-0.6173248291015625,0.11180078238248825
1663326949210415000,2.7014150390625,-0.4831961989402771,-0.6447886228561401,0.046348072588443756
1663326949220372000,2.7113720703125,-0.4742850065231323,-0.5940415859222412,0.0039039438124746084
1663326949230329000,2.7213291015625,-0.4717560112476349,-0.4897933602333069,-0.011073127388954163
1663326949240285000,2.731284912109375,-0.47282445430755615,-0.3448878526687622,-0.014158399775624275
1663326949250242000,2.741241943359375,-0.47283920645713806,-0.21828795969486237,-0.008283966220915318
1663326949260199200,2.75119921875,-0.47100988030433655,-0.15134860575199127,0.0017143390141427517
1663326949270155000,2.761155029296875,-0.4604622423648834,-0.18132629990577698,0.002443306613713503
1663326949280112000,2.771112060546875,-0.44446703791618347,-0.2768765091896057,-0.02285139635205269
1663326949290069000,2.781069091796875,-0.42401322722435,-0.38680246472358704,-0.05146370828151703
1663326949300025000,2.791025146484375,-0.3955773115158081,-0.4505883455276489,-0.07168588787317276
1663326949309982000,2.80098193359375,-0.3805866241455078,-0.4311254322528839,-0.08856158703565598
1663326949319938800,2.810938720703125,-0.37666910886764526,-0.33987781405448914,-0.08795225620269775
1663326949329896000,2.82089599609375,-0.37427210807800293,-0.1990092694759369,-0.0741916224360466
1663326949339852000,2.83085205078125,-0.37434881925582886,-0.04262552037835121,-0.06568335741758347
1663326949349809000,2.840808837890625,-0.3828200101852417,0.07574087381362915,-0.07052100449800491
1663326949359766000,2.85076611328125,-0.4139001667499542,0.12072885036468506,-0.08794846385717392
1663326949369722000,2.86072216796875,-0.45110100507736206,0.05728818103671074,-0.10799334198236465
1663326949379679000,2.870678955078125,-0.5073994398117065,-0.08360742032527924,-0.11597377061843872
1663326949389636000,2.880635986328125,-0.577472448348999,-0.2680869996547699,-0.08890081942081451
1663326949399592000,2.890592041015625,-0.6321993470191956,-0.4646264314651489,-0.031067073345184326
1663326949409549000,2.900549072265625,-0.6722424030303955,-0.5750184059143066,0.041959166526794434
1663326949419506200,2.910506103515625,-0.6984210014343262,-0.523671567440033,0.10972277075052261
1663326949429462800,2.920462890625,-0.7654628753662109,-0.29979196190834045,0.17549151182174683
1663326949439419100,2.930419189453125,-0.8782970309257507,0.03279770538210869,0.226619154214859
1663326949449376000,2.9403759765625,-1.0177898406982422,0.4048847556114197,0.2405707687139511
1663326949459332900,2.950332763671875,-1.2092152833938599,0.6871162056922913,0.2502596378326416
1663326949469289000,2.9602890625,-1.4588865041732788,0.7337022423744202,0.2912188470363617
1663326949479245800,2.970245849609375,-1.9199689626693726,0.6038470268249512,0.40871110558509827
1663326949489203000,2.980202880859375,-2.0327630043029785,-0.06617172807455063,0.43643730878829956
1663326949499159000,2.990158935546875,-1.9127689599990845,-0.4754641652107239,0.4678319990634918
1663326949509116000,3.000115966796875,-2.031613349914551,-0.7165567874908447,0.48236608505249023
1663326949519073000,3.010072998046875,-2.086215019226074,-0.8578886389732361,0.5066826343536377
1663326949529030100,3.020030029296875,-2.1629996299743652,-0.6672755479812622,0.4454324543476105
1663326949538986000,3.029986083984375,-2.373063564300537,-0.2692791819572449,0.3087632656097412
1663326949548943000,3.039943115234375,-2.5693721771240234,0.24632026255130768,0.10781386494636536
1663326949558900200,3.049900146484375,-2.6912426948547363,0.5933991074562073,-0.17570866644382477
1663326949568856000,3.05985595703125,-2.7301084995269775,0.8870007395744324,-0.618003785610199
1663326949578813200,3.069813232421875,-2.746319055557251,0.6919865012168884,-1.1112290620803833
1663326949588769800,3.079769775390625,-2.556746244430542,0.39235395193099976,-1.665260910987854
1663326949598726100,3.08972607421875,-2.206655979156494,0.1312038153409958,-2.0871593952178955
1663326949608683000,3.09968310546875,-1.786819338798523,-0.03489810973405838,-2.361232280731201
1663326949618640000,3.109639892578125,-1.3700988292694092,-0.04116559028625488,-2.577855110168457
1663326949628597000,3.119596923828125,-1.0561033487319946,0.04573211818933487,-2.8247780799865723
1663326949638552800,3.129552734375,-0.8534949421882629,0.15222713351249695,-3.0815253257751465
1663326949648510000,3.139510009765625,-0.7534392476081848,0.25336524844169617,-3.1037559509277344
1663326949658467000,3.149467041015625,-0.7002780437469482,0.2116803675889969,-2.7382328510284424
1663326949668423000,3.1594228515625,-0.6863584518432617,-0.13864797353744507,-1.8431189060211182
1663326949678380000,3.169380126953125,-0.6499682068824768,-0.7883439064025879,-0.5628849864006042
1663326949688337200,3.179337158203125,-0.5343290567398071,-1.5177571773529053,0.4904652535915375
1663326949698293200,3.189293212890625,-0.3895795941352844,-2.092603921890259,1.0881898403167725
1663326949708250000,3.19925,-0.24096044898033142,-2.0362226963043213,1.2588708400726318
1663326949718207200,3.209207275390625,-0.2336292862892151,-1.005786418914795,0.5861348509788513
1663326949728164000,3.2191640625,-0.5338420271873474,0.3611159026622772,-0.9105794429779053
1663326949738120200,3.2291201171875,-0.9476711750030518,1.182540774345398,-3.0264594554901123
1663326949748077000,3.2390771484375,-0.6662485003471375,0.9352326393127441,-5.387222766876221
1663326949758034000,3.249033935546875,0.4891257882118225,-0.5967819690704346,-7.434254169464111
1663326949767990000,3.258989990234375,1.9601596593856812,-2.2262885570526123,-8.819012641906738
1663326949777947100,3.268947021484375,3.1504478454589844,-3.171706199645996,-9.205134391784668
1663326949787904000,3.278904052734375,3.372288703918457,-2.5802245140075684,-8.605725288391113
1663326949797860000,3.288860107421875,2.6011765003204346,-1.0251288414001465,-7.182403087615967
1663326949807817000,3.29881689453125,0.777252733707428,-0.11769597977399826,-4.802043914794922
1663326949817774000,3.308774169921875,-0.7091482877731323,1.4339109659194946,-2.2242660522460938
1663326949827730200,3.318730224609375,-1.8621327877044678,2.561624765396118,-0.019065162166953087
1663326949837687000,3.32868701171875,-2.4514055252075195,2.696916103363037,1.8556712865829468
1663326949847644200,3.33864404296875,-2.5658013820648193,2.264951467514038,2.9995734691619873
1663326949857601300,3.348601318359375,-2.327622652053833,1.7083956003189087,3.536508798599243
1663326949867557000,3.35855712890625,-1.8338278532028198,1.281673550605774,3.5778799057006836
1663326949877514200,3.36851416015625,-1.2029982805252075,0.875008225440979,3.2421987056732178
1663326949887471000,3.37847119140625,-0.5068578720092773,0.6180703639984131,2.6453747749328613
1663326949897427200,3.38842724609375,0.1607673019170761,0.6137778759002686,1.9180784225463867
1663326949907384000,3.398384033203125,0.7082239985466003,0.6967540383338928,1.0957473516464233
1663326949917341000,3.4083408203125,1.1083167791366577,0.8066200613975525,0.28930699825286865
1663326949927298000,3.418298095703125,1.3542498350143433,0.6035869717597961,-0.3140006363391876
1663326949937254100,3.428254150390625,1.3477554321289062,0.26261818408966064,-0.5869983434677124
1663326949947211000,3.4382109375,1.0705982446670532,-0.008613280020654202,-0.5614684224128723
1663326949957168000,3.448168212890625,0.714365541934967,-0.28286054730415344,-0.3740580379962921
1663326949967124000,3.4581240234375,0.38458919525146484,-0.4005977213382721,-0.14142301678657532
1663326949977081000,3.4680810546875,0.07911957055330276,-0.22947020828723907,-0.08923198282718658
1663326949987038200,3.4780380859375,-0.15359996259212494,-0.04841173440217972,-0.18808506429195404
1663326949996994000,3.487994140625,-0.2646375298500061,0.08142589032649994,-0.3990801274776459
1663326950006951200,3.497951171875,-0.25883564352989197,0.16950075328350067,-0.6374801397323608
1663326950016908300,3.507908203125,-0.17149490118026733,0.17288483679294586,-0.8792169094085693
1663326950026865000,3.517864990234375,-0.04926208034157753,0.09563908725976944,-0.9250202178955078
1663326950036821200,3.5278212890625,0.06557129323482513,0.008928691036999226,-0.7448853850364685
1663326950046778000,3.537778076171875,0.16455958783626556,-0.11341211199760437,-0.4172532558441162
1663326950056735000,3.54773486328125,0.21389971673488617,-0.20922891795635223,-0.03514902666211128
1663326950066691000,3.557691162109375,0.2216159999370575,-0.0975707545876503,0.2850164473056793
1663326950076648000,3.56764794921875,0.20006462931632996,0.11267755925655365,0.4599922299385071
1663326950086605000,3.57760498046875,0.12256041914224625,0.29820236563682556,0.4898083806037903
1663326950096561200,3.58756103515625,0.008923596702516079,0.46182990074157715,0.3698526918888092
1663326950106518000,3.59751806640625,-0.09763535857200623,0.4963873326778412,0.15442323684692383
1663326950116475100,3.60747509765625,-0.14653153717517853,0.4263203740119934,-0.15268956124782562
1663326950126432300,3.617432373046875,-0.11436367779970169,0.3203396797180176,-0.45462390780448914
1663326950136388000,3.62738818359375,-0.01945553719997406,0.1446767896413803,-0.6504823565483093
1663326950146345200,3.63734521484375,0.07650702446699142,-0.028447668999433517,-0.6691206693649292
1663326950156302300,3.64730224609375,0.1396641582250595,-0.0453781820833683,-0.5234535932540894
1663326950166258200,3.657258056640625,0.16311730444431305,0.10607495158910751,-0.27920103073120117
1663326950176215300,3.66721533203125,0.158522829413414,0.28143343329429626,-0.04597391560673714
1663326950186172000,3.677171875,0.15272776782512665,0.35201945900917053,0.12220582365989685
1663326950196129000,3.68712890625,0.15808579325675964,0.3148747384548187,0.14951466023921967
1663326950206085000,3.697085205078125,0.17479608952999115,0.19030654430389404,0.047560062259435654
1663326950216042000,3.7070419921875,0.19599086046218872,0.022971343249082565,-0.10182702541351318
1663326950225999000,3.7169990234375,0.2336169183254242,-0.15545310080051422,-0.1597636342048645
1663326950235955000,3.726954833984375,0.29199206829071045,-0.2627244293689728,-0.11046773195266724
1663326950245912000,3.736912109375,0.3171240985393524,-0.23092472553253174,-0.030464619398117065
1663326950255869200,3.746869140625,0.2982012629508972,-0.07090629637241364,0.03112896904349327
1663326950265825000,3.756824951171875,0.264525830745697,0.12475724518299103,0.07487975060939789
1663326950275782100,3.7667822265625,0.23287469148635864,0.2849122881889343,0.08932127803564072
1663326950285739300,3.7767392578125,0.23329958319664001,0.29454684257507324,0.0568409264087677
1663326950295696100,3.786696044921875,0.2633965015411377,0.11338666081428528,0.008708286099135876
1663326950305652200,3.79665234375,0.27589812874794006,-0.12106358259916306,-0.009739775210618973
1663326950315609000,3.806609130859375,0.27959007024765015,-0.3372264802455902,-0.011060703545808792
1663326950325566000,3.81656591796875,0.27573299407958984,-0.5221367478370667,0.0032138084061443806
1663326950335522000,3.82652197265625,0.2539297044277191,-0.5729381442070007,0.029882702976465225
1663326950345479000,3.83647900390625,0.20184218883514404,-0.4493456184864044,0.049511685967445374
1663326950355436000,3.84643603515625,0.11413843929767609,-0.2066807746887207,0.05189787968993187
1663326950365393200,3.85639306640625,0.01341613195836544,0.056865282356739044,0.035741887986660004
1663326950375349000,3.866348876953125,-0.04857240244746208,0.2397378832101822,-0.00889455433934927
1663326950385306000,3.87630615234375,-0.08623983711004257,0.30081936717033386,-0.07946333289146423
1663326950395263200,3.88626318359375,-0.09957694262266159,0.21642382442951202,-0.15654747188091278
1663326950405219000,3.896218994140625,-0.10844995081424713,0.04822510480880737,-0.23141725361347198
1663326950415176200,3.90617626953125,-0.09496689587831497,-0.13223813474178314,-0.2673978805541992
1663326950425133000,3.916133056640625,-0.05161493271589279,-0.24127458035945892,-0.229633629322052
1663326950435090200,3.926090087890625,-0.014358376152813435,-0.23728437721729279,-0.14725381135940552
1663326950445046300,3.93604638671875,0.0060841734521090984,-0.1592123657464981,-0.05648143216967583
1663326950455003100,3.946003173828125,0.02427755855023861,-0.037636399269104004,-0.031494855880737305
1663326950464960000,3.9559599609375,0.05270512029528618,0.051920343190431595,-0.09118815511465073
1663326950474916000,3.965916015625,0.09615246951580048,0.05111819878220558,-0.1761091649532318
1663326950484873000,3.975873046875,0.1624613106250763,-0.04305890575051308,-0.27314701676368713
1663326950494830000,3.985830078125,0.2189440280199051,-0.19508466124534607,-0.356244832277298
1663326950504786000,3.995785888671875,0.25075870752334595,-0.36505207419395447,-0.40537959337234497
1663326950514743000,4.005742919921875,0.24603210389614105,-0.5125845074653625,-0.3899167478084564
1663326950524700200,4.0157001953125,0.22136813402175903,-0.6013600826263428,-0.3010880947113037
1663326950534657000,4.025656982421875,0.1724162995815277,-0.5771806836128235,-0.1518261879682541
1663326950544613000,4.035613037109375,0.08642179518938065,-0.44070884585380554,-0.00926030334085226
1663326950554570200,4.0455703125,-0.03031228296458721,-0.19575077295303345,0.06215768679976463
1663326950564527000,4.055527099609375,-0.13025663793087006,0.10327634960412979,-0.052268967032432556
1663326950574483200,4.065483154296875,-0.1854967325925827,0.30236387252807617,-0.339428573846817
1663326950584440000,4.075440185546875,-0.19676342606544495,0.19584843516349792,-0.5457721948623657
1663326950594397200,4.085397216796875,-0.1620187610387802,-0.1525564193725586,-0.47895458340644836
1663326950604354000,4.09535400390625,-0.12023883312940598,-0.5227291584014893,-0.23228487372398376
1663326950614310100,4.10531005859375,-0.1319252997636795,-0.7445573806762695,0.07249820232391357
1663326950624267000,4.11526708984375,-0.22720028460025787,-0.7474365830421448,0.38849708437919617
1663326950634224000,4.12522412109375,-0.35666823387145996,-0.5236136317253113,0.6221303343772888
1663326950644180000,4.135179931640625,-0.4829957187175751,-0.14266879856586456,0.7386555671691895
1663326950654137000,4.14513720703125,-0.5730337500572205,0.2714298367500305,0.707459568977356
1663326950664094200,4.15509423828125,-0.5833603143692017,0.5315316915512085,0.407024085521698
1663326950674051000,4.165051025390625,-0.5236226916313171,0.5317268967628479,-0.0033674417063593864
1663326950684007200,4.175007080078125,-0.4152563512325287,0.2229086458683014,-0.1992194503545761
1663326950693964000,4.184964111328125,-0.2434353530406952,-0.2831004858016968,-0.0914493203163147
1663326950703921200,4.194921142578125,-0.05262794345617294,-0.9178211688995361,0.20332792401313782
1663326950713877000,4.204876953125,0.08392777293920517,-1.3754957914352417,0.5456008911132812
1663326950723834000,4.214834228515625,0.09137365967035294,-1.4665414094924927,0.8663786053657532
1663326950733791000,4.224791015625,-0.023753194138407707,-1.1400277614593506,1.078043818473816
1663326950743747800,4.234747802734375,-0.24799931049346924,-0.5270676612854004,1.0855729579925537
1663326950753704200,4.2447041015625,-0.5007932186126709,0.1741461157798767,0.927302360534668
1663326950763660800,4.254660888671875,-0.6770536303520203,0.7747592329978943,0.6487887501716614
1663326950773618000,4.264617919921875,-0.7341848611831665,1.1019901037216187,0.2158711701631546
1663326950783573800,4.27457373046875,-0.654375433921814,1.046992540359497,-0.38459423184394836
1663326950793531000,4.28453076171875,-0.5330753326416016,0.7078083157539368,-0.754978358745575
1663326950803488000,4.294488037109375,-0.3976956009864807,0.21009667217731476,-0.6792005300521851
1663326950813445000,4.304445068359375,-0.24329084157943726,-0.15396037697792053,-0.29313433170318604
1663326950823401000,4.31440087890625,-0.162399560213089,-0.22919684648513794,0.16393138468265533
1663326950833358000,4.324358154296875,-0.2078392207622528,0.033387359231710434,0.5196285247802734
1663326950843315000,4.33431494140625,-0.3217376172542572,0.5345396995544434,0.7048789262771606
1663326950853271000,4.34427099609375,-0.43203750252723694,1.024401068687439,0.7036453485488892
1663326950863228200,4.354228271484375,-0.4651299715042114,1.4001977443695068,0.5819543600082397
1663326950873185000,4.36418505859375,-0.37524667382240295,1.4936152696609497,0.37560728192329407
1663326950883142000,4.374141845703125,-0.19703128933906555,1.242113471031189,0.04985146224498749
1663326950893098000,4.384097900390625,0.014214630238711834,0.8257167339324951,-0.19504190981388092
1663326950903054800,4.394054931640625,0.20780253410339355,0.33086925745010376,-0.16878481209278107
1663326950913012000,4.404011962890625,0.39724063873291016,-0.0988144725561142,0.07163525372743607
1663326950922967800,4.4139677734375,0.5623799562454224,-0.332634836435318,0.4487383961677551
1663326950932925000,4.423925048828125,0.6555383801460266,-0.3498479127883911,0.8092614412307739
1663326950942882000,4.433882080078125,0.6588188409805298,-0.18693023920059204,1.0561041831970215
1663326950952839000,4.4438388671875,0.6363473534584045,0.0859883725643158,1.2053771018981934
1663326950962795000,4.453794921875,0.5983107089996338,0.30677565932273865,1.2299705743789673
1663326950972752000,4.463751953125,0.5530431270599365,0.39023035764694214,1.0982040166854858
1663326950982709000,4.473708984375,0.5422189831733704,0.31874722242355347,0.9058959484100342
1663326950992665000,4.4836650390625,0.5764060020446777,0.10305780917406082,0.8300584554672241
1663326951002622000,4.4936220703125,0.6345642805099487,-0.21898047626018524,0.9524576663970947
1663326951012579000,4.5035791015625,0.707241415977478,-0.5878804922103882,1.2017606496810913
1663326951022536000,4.513535888671875,0.7535401582717896,-0.9046962261199951,1.4210593700408936
1663326951032492000,4.523491943359375,0.7569641470909119,-1.0442885160446167,1.4661533832550049
1663326951042449000,4.533448974609375,0.7358472347259521,-0.9577681422233582,1.3500001430511475
1663326951052406000,4.543406005859375,0.664964497089386,-0.7210853099822998,1.1515158414840698
1663326951062361900,4.55336181640625,0.5642239451408386,-0.4416496455669403,0.9119895100593567
1663326951072319000,4.563319091796875,0.4890495240688324,-0.19665533304214478,0.6955959796905518
1663326951082275800,4.57327587890625,0.49596107006073,-0.03829537332057953,0.5323548316955566
1663326951092233000,4.58323291015625,0.5647965669631958,0.07529164105653763,0.5521224141120911
1663326951102189000,4.59318896484375,0.5806249976158142,0.04351519048213959,0.7512600421905518
1663326951112146000,4.60314599609375,0.5501536130905151,-0.15711751580238342,0.9770526885986328
1663326951122103000,4.61310302734375,0.5005343556404114,-0.5027832388877869,1.1136565208435059
1663326951132059000,4.623058837890625,0.4401836395263672,-0.854096531867981,1.1531349420547485
1663326951142016000,4.63301611328125,0.38427120447158813,-1.0887123346328735,1.1545528173446655
1663326951151973000,4.64297314453125,0.34297460317611694,-1.1883704662322998,1.154219150543213
1663326951161930000,4.652929931640625,0.33828413486480713,-1.1189943552017212,1.1850301027297974
1663326951171886000,4.662885986328125,0.32234033942222595,-0.8939223289489746,1.2303131818771362
1663326951181843000,4.672843017578125,0.23572157323360443,-0.5744167566299438,1.238418698310852
1663326951191799800,4.6827998046875,0.14725349843502045,-0.2482338696718216,1.1861189603805542
1663326951201756000,4.692755859375,0.09556449204683304,0.029098913073539734,1.1077003479003906
1663326951211713000,4.702713134765625,0.07731597870588303,0.1886797845363617,1.0367803573608398
1663326951221670000,4.712669921875,0.13976573944091797,0.20329992473125458,0.9661540389060974
1663326951231627000,4.722626953125,0.2416239231824875,0.08300306648015976,0.916803777217865
1663326951241582800,4.732582763671875,0.31821197271347046,-0.1170014888048172,0.8870688080787659
1663326951251540000,4.7425400390625,0.3458593189716339,-0.27513283491134644,0.8572624325752258
1663326951261497000,4.7524970703125,0.34443607926368713,-0.3163536489009857,0.8220152258872986
1663326951271454000,4.762453857421875,0.32022446393966675,-0.24299021065235138,0.7839708924293518
1663326951281410000,4.77241015625,0.27862560749053955,-0.07849188894033432,0.7353783249855042
1663326951291367200,4.7823671875,0.2464410364627838,0.11063701659440994,0.6723013520240784
1663326951301323800,4.79232373046875,0.2505694329738617,0.24843280017375946,0.584484338760376
1663326951311280000,4.802280029296875,0.2955917418003082,0.32512596249580383,0.4357750117778778
1663326951321237000,4.812237060546875,0.3689109683036804,0.3505234718322754,0.2795470654964447
1663326951331193900,4.82219384765625,0.4402320086956024,0.3336246609687805,0.15380989015102386
1663326951341151000,4.83215087890625,0.4865484833717346,0.3046906292438507,0.08918772637844086
1663326951351106800,4.84210693359375,0.4802663326263428,0.3173227906227112,0.07082629948854446
1663326951361064000,4.85206396484375,0.4186301827430725,0.40882810950279236,0.0689382404088974
1663326951371021000,4.86202099609375,0.34419748187065125,0.5552092790603638,0.05644535273313522
1663326951380977000,4.871976806640625,0.2856663167476654,0.695766031742096,0.0340527705848217
1663326951390934000,4.88193408203125,0.262423574924469,0.7667533755302429,-0.005566277541220188
1663326951400891100,4.89189111328125,0.25108662247657776,0.735826849937439,-0.07393099367618561
1663326951410848000,4.901847900390625,0.2533535063266754,0.6524674892425537,-0.13850148022174835
1663326951420804000,4.91180419921875,0.27402791380882263,0.5311282277107239,-0.18751758337020874
1663326951430761000,4.921760986328125,0.3093222677707672,0.43564802408218384,-0.2130461037158966
1663326951440717800,4.9317177734375,0.3456811308860779,0.41193515062332153,-0.21377524733543396
1663326951450674200,4.941674072265625,0.35128548741340637,0.42078697681427,-0.20493249595165253
1663326951460630800,4.951630859375,0.30925723910331726,0.4181424677371979,-0.2172539234161377
1663326951470588000,4.961587890625,0.24267742037773132,0.40638914704322815,-0.25800400972366333
1663326951480545000,4.971544921875,0.1572868674993515,0.39684268832206726,-0.31971511244773865
1663326951490500900,4.9815009765625,0.0749477818608284,0.3925965428352356,-0.3672541379928589
1663326951500458000,4.9914580078125,0.010318316519260406,0.37819617986679077,-0.39146265387535095
1663326951510415000,5.0014150390625,-0.01877831667661667,0.348559707403183,-0.36932405829429626
1663326951520372000,5.0113720703125,-0.0250494796782732,0.30428454279899597,-0.2952553629875183
1663326951530328000,5.021328125,-0.006583919748663902,0.22915439307689667,-0.21830756962299347
1663326951540285000,5.031284912109375,0.008771530352532864,0.13546590507030487,-0.20504842698574066
1663326951550242000,5.041241943359375,0.010123617015779018,0.045248664915561676,-0.25082045793533325
1663326951560198100,5.0511982421875,0.003132531652227044,-0.008537768386304379,-0.3439744710922241
1663326951570155000,5.061155029296875,-0.015896819531917572,-0.010758046060800552,-0.45003965497016907
1663326951580112000,5.07111181640625,-0.02438415214419365,-0.010618981905281544,-0.5222728252410889
1663326951590069000,5.081069091796875,-0.012917911633849144,-0.01844175159931183,-0.5420710444450378
1663326951600024800,5.09102490234375,-0.000696709263138473,-0.036288730800151825,-0.4849151074886322
1663326951609982000,5.10098193359375,-0.008182855322957039,-0.06050591915845871,-0.37795722484588623
1663326951619939000,5.11093896484375,-0.023961883038282394,-0.08088307827711105,-0.25482794642448425
1663326951629895000,5.12089501953125,-0.042194679379463196,-0.10835598409175873,-0.14656217396259308
1663326951639852000,5.13085205078125,-0.03789157792925835,-0.1280280500650406,-0.06421061605215073
1663326951649809000,5.140808837890625,-0.02526712976396084,-0.12143832445144653,-0.01843513920903206
1663326951659766000,5.15076611328125,0.0054589430801570415,-0.08205098658800125,-0.012567121535539627
1663326951669722000,5.16072216796875,0.04776884987950325,-0.009223390370607376,-0.030929084867239
1663326951679679000,5.170678955078125,0.08654827624559402,0.07933636754751205,-0.05591359734535217
1663326951689636000,5.180635986328125,0.12378273159265518,0.1294088512659073,-0.08499904721975327
1663326951699592700,5.1905927734375,0.15644191205501556,0.13172338902950287,-0.11561937630176544
1663326951709548800,5.200548828125,0.17269037663936615,0.07209867984056473,-0.13531239330768585
1663326951719505700,5.210505615234375,0.17938296496868134,-0.001083774957805872,-0.13946396112442017
1663326951729462500,5.220462646484375,0.15833787620067596,-0.028947364538908005,-0.10964721441268921
1663326951739418600,5.230418701171875,0.10273293405771255,-0.02637624926865101,-0.06487832218408585
1663326951749375700,5.240375732421875,0.015327461063861847,-0.0159720778465271,-0.0172980185598135
1663326951759332600,5.25033251953125,-0.06142086908221245,0.006623341701924801,0.03611421212553978
1663326951769289700,5.260289794921875,-0.11995555460453033,0.041832730174064636,0.08564847707748413
1663326951779245600,5.27024560546875,-0.1638122797012329,0.08821985870599747,0.1159430518746376
1663326951789202700,5.28020263671875,-0.17723193764686584,0.14234541356563568,0.10533781349658966
1663326951799159800,5.290159912109375,-0.16604183614253998,0.17048507928848267,0.07801385968923569
1663326951809117000,5.300116943359375,-0.1347840428352356,0.17764179408550262,0.03067963942885399
1663326951819072800,5.31007275390625,-0.11829517781734467,0.17823979258537292,-0.02104824036359787
1663326951829030000,5.32002978515625,-0.11635053902864456,0.18493950366973877,-0.06802213937044144
1663326951838986800,5.32998681640625,-0.14004944264888763,0.1640336662530899,-0.08468160033226013
1663326951848942800,5.33994287109375,-0.1603432595729828,0.12483914196491241,-0.08453725278377533
1663326951858899700,5.349899658203125,-0.1737946718931198,0.07428214699029922,-0.07116604596376419
1663326951868856600,5.359856689453125,-0.18686041235923767,0.05097416043281555,-0.0684802457690239
1663326951878813700,5.369813720703125,-0.200126513838768,0.050356149673461914,-0.0872400552034378
1663326951888769500,5.37976953125,-0.1966489553451538,0.047651976346969604,-0.10634690523147583
1663326951898726700,5.3897265625,-0.1748601645231247,0.025945132598280907,-0.11841362714767456
1663326951908683800,5.399683837890625,-0.13962282240390778,-0.005065513774752617,-0.14285452663898468
1663326951918640600,5.409640625,-0.10609932243824005,-0.017443843185901642,-0.17633233964443207
1663326951928596700,5.4195966796875,-0.0804421603679657,0.002406560815870762,-0.19852766394615173
1663326951938553900,5.429553955078125,-0.0695553869009018,0.03521961718797684,-0.20962435007095337
1663326951948510700,5.4395107421875,-0.0657646432518959,0.054340049624443054,-0.23658166825771332
1663326951958466800,5.449466796875,-0.06928565353155136,0.014096681028604507,-0.2706493139266968
1663326951968423700,5.459423583984375,-0.054866231977939606,-0.05223813280463219,-0.29245316982269287
1663326951978380800,5.469380859375,-0.030820967629551888,-0.12144209444522858,-0.28383076190948486
1663326951988337700,5.479337646484375,-0.006777151487767696,-0.15023966133594513,-0.2414233535528183
1663326951998293800,5.489293701171875,0.010675364173948765,-0.12838557362556458,-0.1926591545343399
1663326952008250600,5.499250732421875,0.011927582323551178,-0.09150213748216629,-0.15218815207481384
1663326952018207700,5.509207763671875,0.030785996466875076,-0.05562884733080864,-0.1166188195347786
1663326952028164600,5.51916455078125,0.06914404034614563,-0.02284959703683853,-0.09254171699285507
1663326952038120700,5.52912060546875,0.12177538126707077,-0.004222938325256109,-0.09446205943822861
1663326952048077800,5.539077880859375,0.19483308494091034,0.0070395702496171,-0.13031034171581268
1663326952058034700,5.54903466796875,0.2789977192878723,0.0051381876692175865,-0.1664513349533081
1663326952067990800,5.55899072265625,0.3416227400302887,0.013087989762425423,-0.18294188380241394
1663326952077947600,5.56894775390625,0.36427557468414307,0.04721763730049133,-0.18011263012886047
1663326952087904800,5.57890478515625,0.3396250903606415,0.0975300744175911,-0.15786485373973846
1663326952097862000,5.58886181640625,0.2834850251674652,0.12636716663837433,-0.11988677084445953
1663326952107817700,5.598817626953125,0.2390829473733902,0.12184378504753113,-0.08592560887336731
1663326952117774800,5.60877490234375,0.22378963232040405,0.05456900596618652,-0.05697780102491379
1663326952127731700,5.618731689453125,0.2273055464029312,-0.020381934940814972,-0.03847655653953552
1663326952137687800,5.628687744140625,0.23703788220882416,-0.07273251563310623,-0.03332354873418808
1663326952147644700,5.638644775390625,0.24656695127487183,-0.08688508719205856,-0.05934742093086243
1663326952157601800,5.648601806640625,0.25478366017341614,-0.06369403749704361,-0.11341480910778046
1663326952167558700,5.65855859375,0.2647273540496826,-0.019558269530534744,-0.15607678890228271
1663326952177514800,5.6685146484375,0.2581530511379242,0.019325045868754387,-0.17865678668022156
1663326952187471600,5.6784716796875,0.243030846118927,0.02674141526222229,-0.18448910117149353
1663326952197428700,5.6884287109375,0.22051319479942322,-0.003930090460926294,-0.17830096185207367
1663326952207385900,5.6983857421875,0.191462904214859,-0.06881801038980484,-0.1621510237455368
1663326952217341700,5.708341796875,0.13819409906864166,-0.13834817707538605,-0.14105652272701263
1663326952227298800,5.718298828125,0.09820541739463806,-0.19088196754455566,-0.12452681362628937
1663326952237256000,5.728255859375,0.07472745329141617,-0.23602865636348724,-0.1176525130867958
1663326952247212500,5.738212646484375,0.03417230397462845,-0.26537376642227173,-0.12703350186347961
1663326952257169000,5.7481689453125,0.006769484840333462,-0.2767554819583893,-0.15393197536468506
1663326952267125500,5.75812548828125,-0.00933518260717392,-0.26235231757164,-0.17162096500396729
1663326952277082600,5.76808251953125,-0.003182215616106987,-0.2455642968416214,-0.16579848527908325
1663326952287038700,5.778038818359375,0.03503068536520004,-0.25320354104042053,-0.1404084414243698
1663326952296995600,5.78799560546875,0.1189771518111229,-0.24092742800712585,-0.10119478404521942
1663326952306952700,5.79795263671875,0.23417192697525024,-0.19145335257053375,-0.06074003502726555
1663326952316909800,5.807909912109375,0.35642001032829285,-0.09803168475627899,-0.013322479091584682
1663326952326865700,5.81786572265625,0.4824349284172058,0.049860309809446335,0.03623788431286812
1663326952336822800,5.82782275390625,0.6019930243492126,0.23648354411125183,0.08970141410827637
1663326952346780000,5.83777978515625,0.7433914542198181,0.3936728835105896,0.1357956826686859
1663326952356736800,5.84773681640625,0.9207057952880859,0.48090437054634094,0.19630463421344757
1663326952366692900,5.85769287109375,1.105785608291626,0.47040513157844543,0.28619587421417236
1663326952376649700,5.867649658203125,1.268733263015747,0.43592068552970886,0.3668326437473297
1663326952386606600,5.877606689453125,1.4420222043991089,0.46472570300102234,0.35690730810165405
1663326952396563700,5.887563720703125,1.6472609043121338,0.5439961552619934,0.24801476299762726
1663326952406519600,5.89751953125,1.8694992065429688,0.6043758988380432,0.09587742388248444
1663326952416476700,5.9074765625,2.1185643672943115,0.6376845836639404,-0.023686688393354416
1663326952426433800,5.917433837890625,2.355901002883911,0.681202232837677,-0.0241833683103323
1663326952436389600,5.9273896484375,2.5385990142822266,0.7217925190925598,0.08405740559101105
1663326952446346800,5.9373466796875,2.632380962371826,0.6766034960746765,0.24983732402324677
1663326952456303900,5.947303955078125,2.690420389175415,0.5128410458564758,0.4188052713871002
1663326952466260700,5.9572607421875,2.7751989364624023,0.32365915179252625,0.5488194823265076
1663326952476216800,5.967216796875,2.952547073364258,0.27513256669044495,0.5883724689483643
1663326952486173700,5.977173583984375,3.2892677783966064,0.421945184469223,0.4959370493888855
1663326952496130800,5.987130859375,3.7495033740997314,0.5802218914031982,0.26644641160964966
1663326952506087700,5.997087646484375,4.349006652832031,0.7933253645896912,0.013046655803918839
1663326952516043800,6.007043701171875,4.961362361907959,0.9437606334686279,-0.19298650324344635
1663326952526000600,6.017000732421875,5.4429192543029785,0.9733494520187378,-0.2975166440010071
1663326952535957800,6.026957763671875,5.701709747314453,0.8561644554138184,-0.21970686316490173
1663326952545913600,6.03691357421875,5.791257858276367,0.6071945428848267,0.04756852611899376
1663326952555870700,6.04687060546875,5.812017440795898,0.4428192973136902,0.5449278950691223
1663326952565827600,6.05682763671875,5.836094379425049,0.5262673497200012,1.165715217590332
1663326952575784700,6.06678466796875,5.910029888153076,1.023969292640686,1.7109229564666748
1663326952585740800,6.07674072265625,6.090416431427002,1.776090145111084,2.040618419647217
1663326952595697700,6.08669775390625,6.389486789703369,2.454827070236206,2.138489007949829
1663326952605654800,6.09665478515625,6.744984149932861,3.1010208129882812,1.9277070760726929
1663326952615612000,6.10661181640625,7.006043434143066,3.334014415740967,1.2949360609054565
1663326952625567700,6.116567626953125,7.118686676025391,2.826568603515625,0.44891101121902466
1663326952635524900,6.12652490234375,7.06585693359375,1.9035953283309937,-0.5175093412399292
1663326952645481700,6.136481689453125,6.73689079284668,1.2592551708221436,-1.4454220533370972
1663326952655437800,6.146437744140625,6.1646270751953125,1.020975947380066,-1.9054702520370483
1663326952665394700,6.156394775390625,5.530401706695557,0.9279294013977051,-1.6753861904144287
1663326952675351600,6.1663515625,4.97819185256958,0.7674263119697571,-0.971062183380127
1663326952685308700,6.17630859375,4.503599166870117,0.5785259008407593,-0.10070493072271347
1663326952695264800,6.1862646484375,4.029768943786621,0.2928169071674347,0.5981220602989197
1663326952705221600,6.1962216796875,3.567469596862793,-0.11539829522371292,1.0104066133499146
1663326952715178800,6.2061787109375,3.2643837928771973,-0.45333021879196167,1.0983344316482544
1663326952725135600,6.216135498046875,3.0961267948150635,-0.6205618381500244,0.7632267475128174
1663326952735091700,6.226091796875,2.887725353240967,-0.20774468779563904,0.1598704755306244
1663326952745048600,6.236048583984375,2.443262815475464,0.6258715987205505,-0.49563679099082947
1663326952755005700,6.246005615234375,1.838728904724121,1.8630220890045166,-0.8799651861190796
1663326952764962600,6.255962646484375,1.2381330728530884,3.1485297679901123,-0.9068610072135925
1663326952774918700,6.265918701171875,0.788139283657074,4.076117038726807,-0.7040156126022339
1663326952784875500,6.27587548828125,0.5669797658920288,4.188756465911865,-0.3695436120033264
1663326952794832600,6.28583251953125,0.5840687155723572,3.1808791160583496,0.11180873215198517
1663326952804789500,6.29578955078125,0.8771412968635559,1.588754653930664,0.6570329070091248
1663326952814745600,6.30574560546875,1.277234673500061,0.16284117102622986,1.0531851053237915
1663326952824702700,6.31570263671875,1.5180528163909912,-0.8129554390907288,1.227031946182251
1663326952834659600,6.32565966796875,1.528375506401062,-1.34814453125,1.1772162914276123
1663326952844615700,6.33561572265625,1.3834798336029053,-1.3711262941360474,0.992522120475769
1663326952854572500,6.345572509765625,1.1092690229415894,-1.0160269737243652,0.7020676732063293
1663326952864529700,6.35552978515625,0.7596255540847778,-0.5101067423820496,0.35503724217414856
1663326952874486800,6.36548681640625,0.4535752832889557,-0.018309682607650757,0.029510527849197388
1663326952884442600,6.375442626953125,0.24436961114406586,0.3344779312610626,-0.23299512267112732
1663326952894399700,6.385399658203125,0.09204351156949997,0.6049808263778687,-0.3804469406604767
1663326952904356600,6.395356689453125,0.043333496898412704,0.7620599269866943,-0.39712074398994446
1663326952914313500,6.4053134765625,0.06806331127882004,0.7257740497589111,-0.34555500745773315
1663326952924269600,6.41526953125,0.12462165951728821,0.5130453109741211,-0.2965027689933777
1663326952934226700,6.425226806640625,0.1502327173948288,0.22572766244411469,-0.3132636547088623
1663326952944183600,6.43518359375,0.13276930153369904,0.032158203423023224,-0.38651788234710693
1663326952954140700,6.445140625,0.11599264293909073,-0.11020246893167496,-0.46288713812828064
1663326952964096500,6.455096435546875,0.10522788017988205,-0.20360858738422394,-0.5090826153755188
1663326952974053600,6.4650537109375,0.08318900316953659,-0.14703676104545593,-0.5071055293083191
1663326952984010800,6.4750107421875,0.027903113514184952,-0.00823494978249073,-0.4447430968284607
1663326952993966600,6.484966552734375,-0.06673598289489746,0.21501648426055908,-0.36393871903419495
1663326953003923700,6.494923828125,-0.14870141446590424,0.42058563232421875,-0.2509775459766388
1663326953013880800,6.504880859375,-0.19015420973300934,0.49320173263549805,-0.13286206126213074
1663326953023837400,6.51483740234375,-0.16496816277503967,0.4445663094520569,-0.05713162198662758
1663326953033793800,6.524793701171875,-0.1013203114271164,0.2851885259151459,-0.020201150327920914
1663326953043750400,6.53475048828125,-0.05459195375442505,0.12151199579238892,-0.044043898582458496
1663326953053707500,6.54470751953125,-0.03786813095211983,0.05238860845565796,-0.13001812994480133
1663326953063664600,6.55466455078125,-0.03440016135573387,-0.0016394746489822865,-0.19871224462985992
1663326953073620500,6.564620361328125,-0.0458885058760643,-0.057330965995788574,-0.2354273796081543
1663326953083577600,6.57457763671875,-0.06579776853322983,-0.05225018784403801,-0.24750642478466034
1663326953093534700,6.58453466796875,-0.07341483235359192,0.012312263250350952,-0.22570976614952087
1663326953103491600,6.59449169921875,-0.07152798026800156,0.0851513147354126,-0.16848242282867432
1663326953113447700,6.60444775390625,-0.07544492930173874,0.11398596316576004,-0.0869142934679985
1663326953123404800,6.61440478515625,-0.07619726657867432,0.09492092579603195,-0.014783915132284164
1663326953133361700,6.624361572265625,-0.07769892364740372,0.03515591844916344,0.014780735597014427
1663326953143318500,6.634318603515625,-0.08479437977075577,-0.037909239530563354,0.0017522857524454594
1663326953153274600,6.644274658203125,-0.09406071901321411,-0.1217896118760109,-0.043188948184251785
1663326953163231500,6.6542314453125,-0.08083892613649368,-0.18306736648082733,-0.09445106983184814
1663326953173188600,6.664188720703125,-0.07027239352464676,-0.21395324170589447,-0.12940075993537903
1663326953183145500,6.6741455078125,-0.07700832188129425,-0.17804186046123505,-0.1299709528684616
1663326953193101600,6.6841015625,-0.10207440704107285,-0.09003880620002747,-0.1122199222445488
1663326953203058700,6.69405859375,-0.13540387153625488,0.0051833163015544415,-0.08540748059749603
1663326953213015600,6.704015625,-0.1606295257806778,0.07192850857973099,-0.07011336833238602
1663326953222972700,6.71397265625,-0.1800234615802765,0.11147351562976837,-0.07017036527395248
1663326953232928800,6.7239287109375,-0.18528638780117035,0.11181563884019852,-0.08737584948539734
1663326953242885600,6.7338857421875,-0.17727720737457275,0.10365438461303711,-0.110368512570858
1663326953252842800,6.7438427734375,-0.195623517036438,0.0871690884232521,-0.10963474214076996
1663326953262798600,6.753798583984375,-0.23193572461605072,0.07414756715297699,-0.0642494186758995
1663326953272755700,6.763755615234375,-0.2887449860572815,0.087844118475914,0.008717210963368416
1663326953282712600,6.773712646484375,-0.33808377385139465,0.1258133500814438,0.10786376893520355
1663326953292669400,6.78366943359375,-0.3625961244106293,0.15593186020851135,0.20508266985416412
1663326953302625500,6.79362548828125,-0.35960137844085693,0.15058423578739166,0.2897924780845642
1663326953312582700,6.803582763671875,-0.34509289264678955,0.08124789595603943,0.33580273389816284
1663326953322539500,6.81353955078125,-0.32059502601623535,-0.02327611669898033,0.3399468660354614
1663326953332496600,6.82349658203125,-0.28695374727249146,-0.14932893216609955,0.3098771274089813
1663326953342452500,6.833452392578125,-0.26542794704437256,-0.2649298310279846,0.28028780221939087
1663326953352409600,6.84340966796875,-0.2805444598197937,-0.35214555263519287,0.2660645544528961
1663326953362366700,6.85336669921875,-0.3642164468765259,-0.3772706091403961,0.2583751976490021
1663326953372323800,6.86332373046875,-0.47804421186447144,-0.3423776924610138,0.27985328435897827
1663326953382279700,6.87327978515625,-0.5677666664123535,-0.2964775860309601,0.30417248606681824
1663326953392236800,6.88323681640625,-0.6116838455200195,-0.2775098979473114,0.3357636332511902
1663326953402193700,6.893193603515625,-0.6037409901618958,-0.3047678768634796,0.3592921197414398
1663326953412150500,6.903150634765625,-0.5563777089118958,-0.4035620391368866,0.37269091606140137
1663326953422106600,6.913106689453125,-0.5100874304771423,-0.504287838935852,0.35836124420166016
1663326953432063500,6.9230634765625,-0.5155726075172424,-0.560119092464447,0.32335472106933594
1663326953442020600,6.9330205078125,-0.5783962607383728,-0.5346329212188721,0.2780061364173889
1663326953451977700,6.942977783203125,-0.6661809086799622,-0.4507867693901062,0.2237759679555893
1663326953461933600,6.95293359375,-0.7405757904052734,-0.35236406326293945,0.17810222506523132
1663326953471890700,6.962890625,-0.7452945709228516,-0.29465964436531067,0.1438116431236267
1663326953481847600,6.97284765625,-0.6838876605033875,-0.30412715673446655,0.14182785153388977
1663326953491804700,6.9828046875,-0.5924490094184875,-0.3883027732372284,0.18119077384471893
1663326953501760800,6.9927607421875,-0.5066581964492798,-0.5230976343154907,0.22546875476837158
1663326953511717600,7.002717529296875,-0.5165504813194275,-0.6972686648368835,0.18161945044994354
1663326953521674800,7.0126748046875,-0.5724044442176819,-0.7844528555870056,0.07228843122720718
1663326953531631600,7.022631591796875,-0.6184580326080322,-0.7911118268966675,-0.05020637810230255
1663326953541587700,7.032587646484375,-0.670397162437439,-0.7663731575012207,-0.162790447473526
1663326953551544600,7.042544677734375,-0.7458771467208862,-0.7441257834434509,-0.262553334236145
1663326953561501700,7.052501708984375,-0.7887524366378784,-0.719601571559906,-0.30722174048423767
1663326953571458600,7.06245849609375,-0.7806972861289978,-0.7362049221992493,-0.26463380455970764
1663326953581414700,7.07241455078125,-0.7459419965744019,-0.7582290172576904,-0.14217767119407654
1663326953591371500,7.08237158203125,-0.7308642864227295,-0.756793737411499,0.005918548442423344
1663326953601328600,7.09232861328125,-0.7648648619651794,-0.740505576133728,0.11834149062633514
1663326953611285800,7.10228564453125,-0.8412938714027405,-0.6984841227531433,0.15593628585338593
1663326953621241600,7.11224169921875,-0.9699159860610962,-0.6527366042137146,0.11542881280183792
1663326953631198700,7.12219873046875,-1.1524102687835693,-0.6378744840621948,0.05699129402637482
1663326953641155800,7.13215576171875,-1.3042222261428833,-0.6587076187133789,0.004449524451047182
1663326953651112400,7.142112548828125,-1.3735216856002808,-0.7039861679077148,0.017681214958429337
1663326953661068800,7.15206884765625,-1.374104619026184,-0.7628500461578369,0.10629603266716003
1663326953671025700,7.162025634765625,-1.3439643383026123,-0.7961392402648926,0.24887438118457794
1663326953680982500,7.171982421875,-1.3281813859939575,-0.8094537258148193,0.37571966648101807
1663326953690939600,7.181939697265625,-1.3601155281066895,-0.7726804614067078,0.42723819613456726
1663326953700895500,7.1918955078125,-1.4412943124771118,-0.6995849609375,0.38317006826400757
1663326953710852400,7.201852294921875,-1.533078908920288,-0.6425422430038452,0.24645419418811798
1663326953720809500,7.2118095703125,-1.6275678873062134,-0.622917115688324,0.08560138940811157
1663326953730766300,7.221766357421875,-1.717768669128418,-0.6890062093734741,-0.0529763326048851
1663326953740722400,7.231722412109375,-1.7794309854507446,-0.8238511085510254,-0.14710016548633575
1663326953750679600,7.241679443359375,-1.8591842651367188,-0.9468235373497009,-0.19938763976097107
1663326953760636400,7.251636474609375,-1.9678298234939575,-0.9989594221115112,-0.22669169306755066
1663326953770593300,7.26159326171875,-2.108881950378418,-0.9842978715896606,-0.2407514452934265
1663326953780549400,7.27154931640625,-2.2359580993652344,-0.948621392250061,-0.240467831492424
1663326953790506200,7.28150634765625,-2.3264591693878174,-0.948859453201294,-0.2612815201282501
1663326953800463400,7.29146337890625,-2.3674142360687256,-1.0001567602157593,-0.34624141454696655
1663326953810420200,7.301420166015625,-2.337907075881958,-1.0031899213790894,-0.44869014620780945
1663326953820376300,7.311376220703125,-2.2902886867523193,-0.9549170732498169,-0.5077201724052429
1663326953830333400,7.32133349609375,-2.297334909439087,-0.8642352223396301,-0.5489417314529419
1663326953840290300,7.331290283203125,-2.421383857727051,-0.7505015134811401,-0.6107888221740723
1663326953850246400,7.341246337890625,-2.652817964553833,-0.7387922406196594,-0.6582287549972534
1663326953860203500,7.35120361328125,-2.9174342155456543,-0.8481680154800415,-0.6435810923576355
1663326953870160400,7.361160400390625,-3.14555025100708,-1.0636495351791382,-0.5911451578140259
1663326953880117500,7.371117431640625,-3.28381085395813,-1.3208965063095093,-0.5495367646217346
1663326953890073300,7.3810732421875,-3.295100450515747,-1.5078197717666626,-0.5273213982582092
1663326953900030500,7.391030517578125,-3.182145357131958,-1.574872374534607,-0.5275973081588745
1663326953909987300,7.4009873046875,-2.980807304382324,-1.5564167499542236,-0.5657577514648438
1663326953919944200,7.410944091796875,-2.7247097492218018,-1.476149082183838,-0.6388397216796875
1663326953929900300,7.420900390625,-2.446021318435669,-1.3274832963943481,-0.7248024344444275
1663326953939857400,7.430857421875,-2.209465742111206,-1.175125241279602,-0.7174193263053894
1663326953949814300,7.440814208984375,-2.063528299331665,-1.0294146537780762,-0.5726673603057861
1663326953959771400,7.450771484375,-2.0705432891845703,-0.7840977907180786,-0.371685266494751
1663326953969727200,7.460727294921875,-2.2403204441070557,-0.4552505910396576,-0.24429632723331451
1663326953979684400,7.470684326171875,-2.4743080139160156,-0.23879018425941467,-0.21958725154399872
1663326953989641500,7.480641357421875,-2.597108840942383,-0.25175565481185913,-0.26443424820899963
1663326953999598600,7.4905986328125,-2.564119815826416,-0.4918135106563568,-0.34671393036842346
1663326954009554400,7.500554443359375,-2.4077985286712646,-0.8244382739067078,-0.44932442903518677
1663326954019511600,7.510511474609375,-2.183370351791382,-1.1211353540420532,-0.5568421483039856
1663326954029468400,7.520468505859375,-1.9492014646530151,-1.3737444877624512,-0.6697577834129333
1663326954039425300,7.53042529296875,-1.7616997957229614,-1.4074527025222778,-0.7780299782752991
1663326954049381400,7.54038134765625,-1.718950867652893,-1.1508065462112427,-0.8101209998130798
1663326954059338200,7.550338134765625,-1.8031835556030273,-0.7112935781478882,-0.7596660852432251
1663326954069295400,7.56029541015625,-1.953600525856018,-0.3270767331123352,-0.6357607245445251
1663326954079252500,7.57025244140625,-2.0789477825164795,-0.1406727433204651,-0.4599204659461975
1663326954089208300,7.580208251953125,-2.1025452613830566,-0.15419240295886993,-0.25456735491752625
1663326954099165400,7.59016552734375,-2.016719102859497,-0.2720697522163391,-0.08979596942663193
1663326954109122300,7.600122314453125,-1.8641399145126343,-0.4230208992958069,0.014575659297406673
1663326954119079400,7.610079345703125,-1.7007360458374023,-0.5564367175102234,0.04003894329071045
1663326954129035500,7.620035400390625,-1.5484461784362793,-0.5960181951522827,-0.00031936075538396835
1663326954138992400,7.629992431640625,-1.4213156700134277,-0.5037868022918701,-0.030674071982502937
1663326954148949500,7.639949462890625,-1.3158625364303589,-0.31682729721069336,0.007980355992913246
1663326954158906400,7.64990625,-1.2029104232788086,-0.11605584621429443,0.08832073211669922
1663326954168862500,7.659862548828125,-1.0768799781799316,0.061566390097141266,0.18370525538921356
1663326954178819300,7.6698193359375,-0.9342045783996582,0.2135615199804306,0.28520792722702026
1663326954188776400,7.6797763671875,-0.7824065685272217,0.320034384727478,0.3747941851615906
1663326954198733300,7.6897333984375,-0.639359176158905,0.3808037042617798,0.4400530755519867
1663326954208689400,7.699689453125,-0.5242587924003601,0.39930403232574463,0.464333176612854
1663326954218646300,7.709646240234375,-0.4396933317184448,0.41227737069129944,0.42804041504859924
1663326954228603400,7.719603271484375,-0.3573378324508667,0.4289431869983673,0.35589799284935
1663326954238560500,7.729560546875,-0.26440495252609253,0.42217475175857544,0.2829177975654602
1663326954248516400,7.739516357421875,-0.17392189800739288,0.3845970034599304,0.21634110808372498
1663326954258473500,7.749473388671875,-0.09469259530305862,0.3694036602973938,0.14767949283123016
1663326954268430600,7.7594306640625,-0.049475088715553284,0.37710094451904297,0.0805787667632103
1663326954278387200,7.76938720703125,-0.028174059465527534,0.44310468435287476,0.02637198008596897
1663326954288343600,7.779343505859375,-0.04402919486165047,0.5660992860794067,-0.019934874027967453
1663326954298300400,7.789300537109375,-0.057439275085926056,0.6675585508346558,-0.03246930614113808
1663326954308257300,7.79925732421875,-0.07217097282409668,0.7471230030059814,0.015478422865271568
1663326954318214400,7.80921435546875,-0.08515015244483948,0.7783781290054321,0.08184652775526047
1663326954328170200,7.819170166015625,-0.10315199196338654,0.7398335337638855,0.1347004622220993
1663326954338127400,7.82912744140625,-0.12779024243354797,0.6472407579421997,0.16132834553718567
1663326954348084500,7.83908447265625,-0.12436050176620483,0.49955788254737854,0.15443778038024902
1663326954358041300,7.849041259765625,-0.08610312640666962,0.33977940678596497,0.1284613013267517
1663326954367997400,7.85899755859375,-0.004122035577893257,0.20674848556518555,0.08982305973768234
1663326954377954600,7.86895458984375,0.08793199062347412,0.16225318610668182,0.06087689846754074
1663326954387911400,7.878911376953125,0.17342256009578705,0.21260285377502441,0.032717861235141754
1663326954397868300,7.888868408203125,0.24142824113368988,0.3217722177505493,0.003942408133298159
1663326954407824400,7.898824462890625,0.29177695512771606,0.46397027373313904,-0.016702115535736084
1663326954417781200,7.90878125,0.33882513642311096,0.5819312930107117,-0.013491409830749035
1663326954427738400,7.91873828125,0.38021278381347656,0.6497505307197571,0.03883783891797066
1663326954437695500,7.928695556640625,0.42786553502082825,0.67918461561203,0.09366513788700104
1663326954447651300,7.9386513671875,0.5115646123886108,0.6382660269737244,0.13975489139556885
1663326954457608400,7.9486083984375,0.6248389482498169,0.5408316254615784,0.15259958803653717
1663326954467565300,7.9585654296875,0.7326709032058716,0.4627576768398285,0.11957886815071106
1663326954477522400,7.9685224609375,0.8084373474121094,0.4339164197444916,0.05048634856939316
1663326954487478500,7.978478515625,0.8372181057929993,0.4502120614051819,-0.027833225205540657
1663326954497435400,7.988435302734375,0.8434584140777588,0.4788985550403595,-0.10024883598089218
1663326954507392500,7.998392578125,0.8446474075317383,0.4912427067756653,-0.14902649819850922
1663326954517349400,8.008349365234375,0.8393168449401855,0.45934683084487915,-0.17227749526500702
1663326954527305500,8.018305419921875,0.8297765254974365,0.37966567277908325,-0.1787836253643036
1663326954537262300,8.028262451171875,0.8369319438934326,0.3071270287036896,-0.17648877203464508
1663326954547219200,8.03821923828125,0.8368411660194397,0.24572396278381348,-0.16061528027057648
1663326954557176300,8.04817626953125,0.8321294784545898,0.19058534502983093,-0.13686974346637726
1663326954567132400,8.05813232421875,0.838485598564148,0.15181989967823029,-0.10030067712068558
1663326954577089300,8.06808935546875,0.8497108221054077,0.11905981600284576,-0.04526405781507492
1663326954587046400,8.07804638671875,0.8642691373825073,0.12242034822702408,-0.00457764184102416
1663326954597003500,8.08800341796875,0.8562447428703308,0.17130853235721588,0.013140369206666946
1663326954606959400,8.09795947265625,0.8133881688117981,0.24081407487392426,0.0046897390857338905
1663326954616916500,8.10791650390625,0.7611225843429565,0.32216379046440125,-0.015248015522956848
1663326954626873600,8.11787353515625,0.7043834328651428,0.3606705665588379,-0.04707518219947815
1663326954636830200,8.127830322265625,0.6537333130836487,0.34998250007629395,-0.07902353256940842
1663326954646786600,8.13778662109375,0.6248242855072021,0.278858482837677,-0.10147108882665634
1663326954656743200,8.1477431640625,0.6122499108314514,0.1632504016160965,-0.10026627779006958
1663326954666700300,8.1577001953125,0.5974534153938293,0.049442823976278305,-0.07299286127090454
1663326954676657400,8.167657470703125,0.5763906836509705,-0.034023042768239975,-0.04077766463160515
1663326954686613200,8.17761328125,0.528023898601532,-0.05650844797492027,-0.013455390930175781
1663326954696570400,8.1875703125,0.4742690324783325,-0.04878741130232811,0.006328967399895191
1663326954706528300,8.1975283203125,0.4287272095680237,-0.03678618371486664,0.03787362948060036
1663326954716485000,8.207485107421874,0.37299951910972595,-0.05767655372619629,0.059514474123716354
1663326954726441200,8.217441162109376,0.3392602801322937,-0.08208809792995453,0.05882756784558296
1663326954736398300,8.2273984375,0.32022133469581604,-0.1124286949634552,0.04960477724671364
1663326954746355000,8.23735498046875,0.3080921769142151,-0.13365043699741364,0.04274715110659599
1663326954756312000,8.24731201171875,0.2947523891925812,-0.12143690884113312,0.04279481992125511
1663326954766268200,8.25726806640625,0.27163419127464294,-0.08622206747531891,0.04064174368977547
1663326954776225000,8.26722509765625,0.24352744221687317,-0.05318661406636238,0.039418287575244904
1663326954786182100,8.27718212890625,0.22063453495502472,-0.03481527045369148,0.03864092007279396
1663326954796139300,8.28713916015625,0.21316196024417877,-0.029369905591011047,0.05259402096271515
1663326954806095000,8.29709521484375,0.21167102456092834,-0.021123677492141724,0.06409752368927002
1663326954816052200,8.30705224609375,0.19172820448875427,0.013512861914932728,0.0767829641699791
1663326954826009000,8.317009033203124,0.1578260213136673,0.0520845502614975,0.07131852209568024
1663326954835966200,8.32696630859375,0.10903556644916534,0.0652323067188263,0.05380184203386307
1663326954845922300,8.33692236328125,0.05621161684393883,0.03520316630601883,0.014144090935587883
1663326954855879200,8.346879150390626,-0.0038666334003210068,-0.031067201867699623,-0.033803995698690414
1663326954865836000,8.3568359375,-0.06668005883693695,-0.10851198434829712,-0.09504134953022003
1663326954875793200,8.366793212890625,-0.11269495636224747,-0.15652506053447723,-0.14782413840293884
1663326954885749000,8.3767490234375,-0.14876151084899902,-0.17831557989120483,-0.17445918917655945
1663326954895706000,8.3867060546875,-0.15760719776153564,-0.1871650069952011,-0.17715616524219513
1663326954905663200,8.396663330078125,-0.15144246816635132,-0.18428543210029602,-0.15552379190921783
1663326954915620000,8.4066201171875,-0.14838436245918274,-0.13659700751304626,-0.12082571536302567
1663326954925576200,8.416576171875,-0.1532064974308014,-0.07217106968164444,-0.10868971049785614
1663326954935533000,8.426532958984374,-0.15908782184123993,-0.0328870490193367,-0.10967614501714706
1663326954945490200,8.436490234375,-0.15860356390476227,-0.00714380107820034,-0.11932086944580078
1663326954955447300,8.446447265625,-0.14219236373901367,-0.0020782025530934334,-0.13129709661006927
1663326954965403100,8.456403076171876,-0.09856029599905014,-0.001888322178274393,-0.12187761068344116
1663326954975360300,8.4663603515625,-0.046155139803886414,0.000059513840824365616,-0.07697591185569763
1663326954985317000,8.476317138671876,-0.00109151063952595,0.048630084842443466,-0.017953289672732353
1663326954995274000,8.48627392578125,0.03495384380221367,0.11127588897943497,0.04585791379213333
1663326955005230000,8.49622998046875,0.08709468692541122,0.16286274790763855,0.08176995068788528
1663326955015187000,8.50618701171875,0.1512952297925949,0.1687328964471817,0.08350899815559387
1663326955025144000,8.51614404296875,0.21519799530506134,0.1290493905544281,0.07073742151260376
1663326955035101200,8.52610107421875,0.2929585576057434,0.09591914713382721,0.024848762899637222
1663326955045057000,8.53605712890625,0.36015838384628296,0.10054383426904678,-0.016584642231464386
1663326955055014100,8.54601416015625,0.405134379863739,0.1641411930322647,-0.05053302273154259
1663326955064971300,8.55597119140625,0.43131858110427856,0.23887518048286438,-0.0769275575876236
1663326955074928000,8.56592822265625,0.4856337606906891,0.2798804044723511,-0.09657555818557739
1663326955084884200,8.57588427734375,0.5571326017379761,0.26243218779563904,-0.13176821172237396
1663326955094841300,8.58584130859375,0.6237539649009705,0.24393945932388306,-0.18592464923858643
1663326955104798000,8.5957978515625,0.6678488850593567,0.22444315254688263,-0.2509557008743286
1663326955114755000,8.605755126953126,0.6793843507766724,0.21245653927326202,-0.31163209676742554
1663326955124711000,8.6157109375,0.6504597663879395,0.2161443829536438,-0.34395262598991394
1663326955134668000,8.62566796875,0.6048867106437683,0.2081993669271469,-0.3359493017196655
1663326955144625200,8.635625244140625,0.5483961701393127,0.19298961758613586,-0.2869173288345337
1663326955154582000,8.64558203125,0.49671491980552673,0.1491883397102356,-0.20380859076976776
1663326955164538000,8.6555380859375,0.4580138921737671,0.09203401952981949,-0.08678191900253296
1663326955174495200,8.6654951171875,0.4409768581390381,0.036109767854213715,0.03260412812232971
1663326955184452000,8.6754521484375,0.44388386607170105,0.012077372521162033,0.11359481513500214
1663326955194409200,8.6854091796875,0.4382789731025696,0.04420068860054016,0.14428001642227173
1663326955204365300,8.695365234375,0.4349941313266754,0.09801433235406876,0.11012160032987595
1663326955214322200,8.705322265625,0.4419598877429962,0.14828363060951233,0.06097456067800522
1663326955224279000,8.715279052734376,0.4437190592288971,0.19698962569236755,0.023675354197621346
1663326955234236200,8.725236083984376,0.42554140090942383,0.2543112337589264,0.020713917911052704
1663326955244192000,8.73519189453125,0.38504618406295776,0.30467334389686584,0.034179188311100006
1663326955254149000,8.745149169921875,0.34344494342803955,0.3175971508026123,0.05069957673549652
1663326955264106000,8.75510595703125,0.30948957800865173,0.2843801975250244,0.05644304305315018
1663326955274063000,8.76506298828125,0.2842230796813965,0.2201966941356659,0.037100233137607574
1663326955284019200,8.775019287109375,0.27253997325897217,0.15019214153289795,-0.005848539527505636
1663326955293976000,8.78497607421875,0.26790180802345276,0.09470811486244202,-0.05739615485072136
1663326955303933200,8.79493310546875,0.2669585943222046,0.08379659801721573,-0.10750927776098251
1663326955313890300,8.804890380859375,0.26140856742858887,0.10420812666416168,-0.15658840537071228
1663326955323847200,8.81484716796875,0.24442505836486816,0.16272935271263123,-0.19771333038806915
1663326955333803300,8.82480322265625,0.21642804145812988,0.2260553240776062,-0.21747638285160065
1663326955343760100,8.834760009765626,0.19211654365062714,0.27294477820396423,-0.2269313931465149
1663326955353717000,8.844717041015626,0.1523081362247467,0.2923347055912018,-0.2418442964553833
1663326955363674000,8.854674072265626,0.10878463089466095,0.2598199248313904,-0.2679978609085083
1663326955373630000,8.8646298828125,0.06166905537247658,0.20016217231750488,-0.30494311451911926
1663326955383587000,8.874587158203125,0.012087184935808182,0.12837612628936768,-0.3269985020160675
1663326955393544200,8.884544189453125,-0.03877492994070053,0.06887924671173096,-0.31479695439338684
1663326955403501000,8.8945009765625,-0.07672608643770218,0.018948890268802643,-0.27716195583343506
1663326955413457200,8.90445703125,-0.0970366820693016,-0.021367374807596207,-0.2290319800376892
1663326955423414300,8.914414306640625,-0.12438803911209106,-0.02574501931667328,-0.1898285448551178
1663326955433371100,8.92437109375,-0.16211411356925964,-0.012454248033463955,-0.1823274940252304
1663326955443328300,8.934328369140625,-0.2037324458360672,0.024389537051320076,-0.19490358233451843
1663326955453284000,8.9442841796875,-0.2525932192802429,0.05581670254468918,-0.2281174659729004
1663326955463241200,8.9542412109375,-0.2964332103729248,0.05422573536634445,-0.2847767770290375
1663326955473198000,8.964197998046876,-0.3419080078601837,0.06313613802194595,-0.33468174934387207
1663326955483155200,8.9741552734375,-0.4053395986557007,0.07939710468053818,-0.37265366315841675
1663326955493111000,8.984111083984375,-0.4623163342475891,0.09124018251895905,-0.3725261092185974
1663326955503068200,8.994068115234375,-0.5091415643692017,0.1036079078912735,-0.30941858887672424
1663326955513025000,9.00402490234375,-0.5458316802978516,0.12244471162557602,-0.20826880633831024
1663326955522982100,9.013982177734375,-0.6060412526130676,0.17534154653549194,-0.12552370131015778
1663326955532938200,9.023938232421875,-0.6803149580955505,0.2324162721633911,-0.09904415160417557
1663326955542895000,9.03389501953125,-0.7705301642417908,0.26443204283714294,-0.10390499979257584
1663326955552852200,9.043852294921875,-0.8592243194580078,0.23555512726306915,-0.14549638330936432
1663326955562809300,9.053809326171875,-0.9239966869354248,0.15840831398963928,-0.22056704759597778
1663326955572765200,9.06376513671875,-0.9619104862213135,0.0387658029794693,-0.2825840711593628
1663326955582722300,9.073722412109374,-0.9818712472915649,-0.05798137187957764,-0.3157408535480499
1663326955592679000,9.083678955078126,-0.9932543635368347,-0.08885646611452103,-0.31507641077041626
1663326955602636000,9.093635986328126,-1.0108264684677124,-0.040131423622369766,-0.2889356017112732
1663326955612592000,9.103592041015625,-1.0142627954483032,0.06874232739210129,-0.24972933530807495
1663326955622549000,9.113549072265625,-1.005362629890442,0.19443947076797485,-0.1714843213558197
1663326955632506000,9.123506103515625,-0.9709486961364746,0.3113570213317871,-0.08811300247907639
1663326955642463200,9.133463134765625,-0.9137401580810547,0.38837704062461853,-0.007926717400550842
1663326955652419000,9.143419189453125,-0.8510366082191467,0.4271065890789032,0.054268479347229004
1663326955662376200,9.153376220703125,-0.8020976185798645,0.4539813697338104,0.08586844801902771
1663326955672333300,9.163333251953125,-0.7828922271728516,0.4781301021575928,0.0807541161775589
1663326955682290200,9.173290283203125,-0.7834065556526184,0.48875030875205994,0.033418960869312286
1663326955692247000,9.1832470703125,-0.8093675971031189,0.4515134394168854,-0.04673047363758087
1663326955702203100,9.193203125,-0.8466004729270935,0.36252033710479736,-0.13684150576591492
1663326955712159500,9.203159423828126,-0.8987435698509216,0.22816309332847595,-0.20348764955997467
1663326955722116400,9.213116455078126,-0.94428950548172,0.11616344004869461,-0.2216150462627411
1663326955732073200,9.2230732421875,-0.9757574200630188,0.05021291226148605,-0.19489820301532745
1663326955742029300,9.233029296875,-0.9746065139770508,0.02325003780424595,-0.13501326739788055
1663326955751986200,9.242986083984375,-0.9283455610275269,0.016174819320440292,-0.06348555535078049
1663326955761943300,9.252943359375,-0.8498252034187317,0.039528656750917435,-0.007495400961488485
1663326955771900400,9.262900390625,-0.7544374465942383,0.0906728059053421,0.01977883093059063
1663326955781856300,9.272856201171875,-0.6679942607879639,0.1790652722120285,0.04350277781486511
1663326955791813400,9.2828134765625,-0.6017465591430664,0.28865939378738403,0.0653710588812828
1663326955801770500,9.2927705078125,-0.5724756717681885,0.39862439036369324,0.0746324434876442
1663326955811727400,9.302727294921874,-0.5697044134140015,0.45926377177238464,0.060845524072647095
1663326955821683500,9.312683349609374,-0.5738663673400879,0.43081480264663696,0.04446382448077202
1663326955831640300,9.322640380859376,-0.5675261616706848,0.3419043719768524,0.03575395420193672
1663326955841597400,9.332597412109376,-0.551444411277771,0.22279174625873566,0.017719686031341553
1663326955851554300,9.34255419921875,-0.5349956750869751,0.11059010028839111,0.0002669268287718296
1663326955861510400,9.352510498046875,-0.5267765522003174,0.04325471818447113,-0.016516998410224915
1663326955871467300,9.36246728515625,-0.5296391844749451,0.013681380078196526,-0.024646297097206116
1663326955881424400,9.37242431640625,-0.5247934460639954,-0.018540851771831512,-0.01378648355603218
1663326955891381200,9.38238134765625,-0.526538610458374,-0.04308587685227394,0.02683844044804573
1663326955901337300,9.39233740234375,-0.5332263112068176,-0.047344207763671875,0.09075331687927246
1663326955911294500,9.40229443359375,-0.5491706728935242,-0.04049482196569443,0.150318905711174
1663326955921251300,9.412251220703125,-0.5786811113357544,-0.034641727805137634,0.2020058035850525
1663326955931208400,9.42220849609375,-0.6091282367706299,-0.03033592738211155,0.22428341209888458
1663326955941164300,9.432164306640624,-0.6316197514533997,-0.025362709537148476,0.1987520158290863
1663326955951121400,9.442121337890624,-0.6350395083427429,-0.051118403673172,0.1314914971590042
1663326955961078500,9.45207861328125,-0.6177129745483398,-0.09711465984582901,0.04301613196730614
1663326955971035100,9.46203515625,-0.5844660401344299,-0.1343938410282135,-0.016141200438141823
1663326955980992300,9.4719921875,-0.554022490978241,-0.14433738589286804,-0.018759168684482574
1663326955990948400,9.4819482421875,-0.5227588415145874,-0.13271909952163696,0.016138359904289246
1663326956000905200,9.4919052734375,-0.5002610087394714,-0.10804059356451035,0.05773286148905754
1663326956010862300,9.5018623046875,-0.48474323749542236,-0.06463532894849777,0.10335973650217056
1663326956020819500,9.5118193359375,-0.4809768497943878,-0.02198914624750614,0.12866969406604767
1663326956030775300,9.521775390625,-0.47926658391952515,0.012855120934545994,0.12682491540908813
1663326956040732400,9.531732421875,-0.4762849509716034,0.03005032055079937,0.1033083125948906
1663326956050689500,9.541689453125,-0.469696044921875,0.01638244464993477,0.06036004424095154
1663326956060646400,9.551646484375,-0.44821134209632874,-0.009184114634990692,0.025274718180298805
1663326956070602500,9.5616025390625,-0.4220721423625946,-0.02258327789604664,-0.005047235172241926
1663326956080559400,9.571559326171876,-0.40211692452430725,-0.008534369990229607,-0.033718667924404144
1663326956090516200,9.58151611328125,-0.38533157110214233,0.01641545444726944,-0.08183825761079788
1663326956100473300,9.591473388671876,-0.35848623514175415,0.03157290071249008,-0.13724656403064728
1663326956110429200,9.60142919921875,-0.3242473006248474,0.042238861322402954,-0.18379461765289307
1663326956120386300,9.61138623046875,-0.2803543210029602,0.044706013053655624,-0.23130856454372406
1663326956130343400,9.621343505859375,-0.22998996078968048,0.05340496078133583,-0.28141674399375916
1663326956140300300,9.63130029296875,-0.19231107831001282,0.09682847559452057,-0.3056384325027466
1663326956150256400,9.64125634765625,-0.1684129387140274,0.18691149353981018,-0.3071633577346802
1663326956160213200,9.651213134765625,-0.14327742159366608,0.31122031807899475,-0.3219981789588928
1663326956170170400,9.66117041015625,-0.10722116380929947,0.4492325186729431,-0.35127511620521545
1663326956180127500,9.67112744140625,-0.043092016130685806,0.5532270073890686,-0.3889694809913635
1663326956190084400,9.68108447265625,0.05303185060620308,0.618788480758667,-0.44439947605133057
1663326956200040400,9.69104052734375,0.14310987293720245,0.6049439907073975,-0.5320010781288147
1663326956209997300,9.700997314453126,0.2347377985715866,0.5582404136657715,-0.6208471059799194
1663326956219954200,9.7109541015625,0.3432716131210327,0.5344778299331665,-0.6823697686195374
1663326956229911300,9.720911376953126,0.48431396484375,0.57517009973526,-0.6521980166435242
1663326956239867400,9.730867431640625,0.6717340350151062,0.6608327031135559,-0.5235094428062439
1663326956249824300,9.74082421875,0.905755341053009,0.7957724332809448,-0.3784116506576538
1663326956259781400,9.750781494140625,1.1669836044311523,1.0171895027160645,-0.2529219090938568
1663326956269738500,9.760738525390625,1.4408023357391357,1.3710598945617676,-0.16938439011573792
1663326956279694300,9.7706943359375,1.7323309183120728,1.8940843343734741,-0.16420574486255646
1663326956289651500,9.7806513671875,2.004347562789917,2.498016595840454,-0.1922067403793335
1663326956299608300,9.7906083984375,2.206883668899536,2.9347970485687256,-0.15956221520900726
1663326956309565200,9.800565185546875,2.352135181427002,2.9853463172912598,0.02873764932155609
1663326956319521500,9.810521484375,2.4751267433166504,2.622952938079834,0.3392069935798645
1663326956329478100,9.82047802734375,2.5440001487731934,2.003411054611206,0.6897087693214417
1663326956339435300,9.830435302734376,2.5771045684814453,1.2761876583099365,0.9636759757995605
1663326956349392400,9.840392333984376,2.613109588623047,0.5866308212280273,1.105352759361267
1663326956359348200,9.85034814453125,2.648847818374634,0.078154556453228,1.0856839418411255
1663326956369305300,9.860305419921875,2.7158281803131104,-0.24847710132598877,0.9602077007293701
1663326956379262500,9.870262451171875,2.8490283489227295,-0.5566962957382202,0.7905248999595642
1663326956389219300,9.88021923828125,3.052004337310791,-0.8780016303062439,0.6459948420524597
1663326956399176400,9.890176513671875,3.3177006244659424,-1.178188681602478,0.5603106021881104
1663326956409132300,9.90013232421875,3.5929911136627197,-1.4300616979599,0.5855723023414612
1663326956419089400,9.91008935546875,3.8191275596618652,-1.5887340307235718,0.7793451547622681
1663326956429046300,9.92004638671875,3.9952118396759033,-1.581263542175293,1.0889543294906616
1663326956439003100,9.930003173828124,4.117310523986816,-1.394091010093689,1.4167892932891846
1663326956448959200,9.939959228515624,4.208498477935791,-1.1084022521972656,1.6905665397644043
1663326956458916400,9.949916259765626,4.288819789886475,-0.8039544820785522,1.9051177501678467
1663326956468873200,9.959873291015626,4.360008239746094,-0.5264645218849182,2.0524420738220215
1663326956478830300,9.969830322265626,4.4103312492370605,-0.3276482820510864,2.1118266582489014
1663326956488786400,9.979786376953125,4.458272457122803,-0.28296977281570435,2.053673505783081
1663326956498743300,9.989743408203125,4.46824312210083,-0.3068113327026367,1.861069917678833
1663326956508700400,9.999700439453125,4.457808971405029,-0.3406220078468323,1.5614168643951416
1663326956518657500,10.009657470703125,4.470733642578125,-0.3503713607788086,1.1666921377182007
1663326956528613400,10.01961328125,4.476956844329834,-0.2902987003326416,0.7481763362884521
1663326956538570500,10.029570556640625,4.44488525390625,-0.19541549682617188,0.4462926983833313
1663326956548527400,10.03952734375,4.389589309692383,-0.09879866987466812,0.29431650042533875
1663326956558484200,10.049484130859375,4.334898471832275,-0.001095601823180914,0.26229915022850037
1663326956568441300,10.05944140625,4.29256534576416,0.057255588471889496,0.3035384714603424
1663326956578397200,10.069397216796874,4.238738059997559,0.08428860455751419,0.3297126591205597
1663326956588354300,10.079354248046876,4.084052085876465,0.2200046181678772,0.2825222611427307
1663326956598311400,10.0893115234375,3.77111554145813,0.460835725069046,0.14614544808864594
1663326956608268300,10.099268310546876,3.3106110095977783,0.5424214005470276,-0.08003761619329453
1663326956618224400,10.109224365234375,2.803997278213501,0.2423182725906372,-0.3063628077507019
1663326956628181500,10.119181396484375,2.454960346221924,-0.39466243982315063,-0.3570089340209961
1663326956638138400,10.129138427734375,2.3896994590759277,-1.175599217414856,-0.2364734411239624
1663326956648095500,10.139095458984375,2.445970296859741,-1.8410507440567017,0.020439572632312775
1663326956658051300,10.14905126953125,2.4742798805236816,-2.1345157623291016,0.38363394141197205
1663326956668008400,10.159008544921875,2.388204336166382,-2.0618157386779785,0.7278985977172852
1663326956677965300,10.16896533203125,2.2080821990966797,-1.6809253692626953,1.0126090049743652
1663326956687922200,10.178922119140625,1.9501233100891113,-1.055046796798706,1.2389161586761475
1663326956697878300,10.188878173828124,1.6457363367080688,-0.31742069125175476,1.3961142301559448
1663326956707836000,10.1988359375,1.4216699600219727,0.32717588543891907,1.5759495496749878
1663326956717793000,10.20879296875,1.3716204166412354,0.7150768637657166,1.8346091508865356
1663326956727750100,10.218750244140624,1.4301131963729858,0.8035502433776855,2.0770812034606934
1663326956737707000,10.22870703125,1.5869518518447876,0.6082714796066284,2.2002909183502197
1663326956747663000,10.2386630859375,1.7743393182754517,0.3578326106071472,2.138502836227417
1663326956757620200,10.2486201171875,1.8680627346038818,0.18318770825862885,1.8861236572265625
1663326956767576800,10.258576904296875,1.867124080657959,0.01617715321481228,1.504530668258667
1663326956777534000,10.268533935546875,1.7672100067138672,-0.15278765559196472,1.0730936527252197
1663326956787490000,10.278489990234375,1.5145210027694702,-0.2907859981060028,0.6632811427116394
1663326956797447000,10.288447021484375,1.1837564706802368,-0.3283456861972809,0.2892969250679016
1663326956807404000,10.298404052734375,0.8046480417251587,-0.32054367661476135,-0.022742481902241707
1663326956817361200,10.308361083984375,0.4609445333480835,-0.3361399173736572,-0.2661919593811035
1663326956827317000,10.31831689453125,0.19554375112056732,-0.39173632860183716,-0.45879441499710083
1663326956837274000,10.328274169921874,0.01202691625803709,-0.41733577847480774,-0.6155290007591248
1663326956847231000,10.33823095703125,-0.09333785623311996,-0.37027692794799805,-0.7270914912223816
1663326956857188000,10.34818798828125,-0.11623174697160721,-0.2839808464050293,-0.8033382296562195
1663326956867144200,10.358144287109376,-0.07447470724582672,-0.19295641779899597,-0.9206619262695312
1663326956877101000,10.36810107421875,-0.035862717777490616,-0.15510717034339905,-1.0442343950271606
1663326956887058000,10.378057861328125,-0.022206028923392296,-0.21122583746910095,-1.1179273128509521
1663326956897015000,10.38801513671875,-0.06026849523186684,-0.35911405086517334,-1.1042757034301758
1663326956906972000,10.397971923828125,-0.14349867403507233,-0.5335532426834106,-0.9863246083259583
1663326956916928000,10.407927978515625,-0.23573362827301025,-0.6459046602249146,-0.7582202553749084
1663326956926885000,10.417885009765625,-0.29385873675346375,-0.5622062683105469,-0.44589537382125854
1663326956936842000,10.427842041015625,-0.31589439511299133,-0.28204450011253357,-0.16354596614837646
1663326956946799000,10.437799072265625,-0.3319095969200134,0.0618089959025383,0.0025556469336152077
1663326956956755000,10.4477548828125,-0.3661971092224121,0.34803837537765503,0.05454050004482269
1663326956966712000,10.457712158203124,-0.38486558198928833,0.47169190645217896,0.03904836252331734
1663326956976669200,10.467669189453124,-0.38825902342796326,0.4307555854320526,0.015462623909115791
1663326956986625800,10.477625732421876,-0.3947922885417938,0.2669075131416321,-0.00928187184035778
1663326956996582100,10.48758203125,-0.3713511526584625,0.07373380661010742,-0.004248230252414942
1663326957006539000,10.4975390625,-0.2902357876300812,-0.06450529396533966,0.045403480529785156
1663326957016495900,10.507495849609375,-0.17492136359214783,-0.05536255985498428,0.10801883041858673
1663326957026453000,10.517452880859375,-0.07113716751337051,0.11230606585741043,0.14329718053340912
1663326957036410000,10.52741015625,-0.028438903391361237,0.3927971422672272,0.12737326323986053
1663326957046366000,10.537365966796875,-0.008722457103431225,0.6303572654724121,0.06366859376430511
1663326957056323000,10.547322998046875,0.0497610978782177,0.6599146723747253,-0.05510938540101051
1663326957066280200,10.5572802734375,0.05957591161131859,0.4547106623649597,-0.22457751631736755
1663326957076237000,10.567237060546875,0.007412527222186327,0.17287909984588623,-0.3646981716156006
1663326957086193200,10.577193115234374,-0.05548042058944702,-0.16220062971115112,-0.44125473499298096
1663326957096150000,10.58714990234375,-0.11565231531858444,-0.41462546586990356,-0.41289177536964417
1663326957106107000,10.59710693359375,-0.14358888566493988,-0.44347548484802246,-0.2627320885658264
1663326957116064000,10.60706396484375,-0.14508017897605896,-0.08712271600961685,-0.04070184379816055
1663326957126019800,10.617019775390625,-0.17631959915161133,0.49420031905174255,0.1757441759109497
1663326957135977000,10.62697705078125,-0.2269061952829361,1.000130534172058,0.34723910689353943
1663326957145934000,10.63693408203125,-0.2915560007095337,1.2462037801742554,0.43311941623687744
1663326957155891000,10.646890869140625,-0.34820133447647095,1.1842992305755615,0.39275145530700684
1663326957165848000,10.65684814453125,-0.3875308930873871,0.8578285574913025,0.262290358543396
1663326957175804000,10.666803955078125,-0.3727143704891205,0.42534783482551575,0.11368665099143982
1663326957185761000,10.676760986328125,-0.32943612337112427,0.05708007141947746,-0.007457350846379995
1663326957195718100,10.68671826171875,-0.2942451238632202,-0.07414425909519196,-0.04077322781085968
1663326957205675000,10.696675048828125,-0.3282821774482727,0.13146935403347015,0.02343451790511608
1663326957215631000,10.706631103515624,-0.45708543062210083,0.5941172242164612,0.12112119793891907
1663326957225588000,10.716587890625,-0.646260678768158,1.0701346397399902,0.20279236137866974
1663326957235544800,10.726544921875,-0.8102510571479797,1.3454110622406006,0.30613821744918823
1663326957245502000,10.736501953125,-0.9090133309364319,1.3262224197387695,0.3924456834793091
1663326957255458000,10.7464580078125,-0.9646853804588318,1.0826998949050903,0.36878103017807007
1663326957265415000,10.756414794921875,-0.9828556180000305,0.7250136733055115,0.2608356475830078
1663326957275372000,10.7663720703125,-0.965514600276947,0.3543946146965027,0.11852888017892838
1663326957285329200,10.7763291015625,-0.942720353603363,0.05780608952045441,-0.05396326258778572
1663326957295286000,10.7862861328125,-0.9716818928718567,-0.13929598033428192,-0.1992506980895996
1663326957305242000,10.7962421875,-1.1307528018951416,-0.13842113316059113,-0.2880876064300537
1663326957315199000,10.806198974609375,-1.3987915515899658,0.02693687006831169,-0.35016360878944397
1663326957325156000,10.816156005859375,-1.6713201999664307,0.1874980628490448,-0.41973790526390076
1663326957335113000,10.826113037109375,-1.913771390914917,0.20689627528190613,-0.4993109703063965
1663326957345069000,10.836069091796874,-2.0990653038024902,0.056451912969350815,-0.628902018070221
1663326957355026000,10.84602587890625,-2.24821138381958,-0.24153661727905273,-0.8103976249694824
1663326957364983000,10.855983154296876,-2.3726646900177,-0.6050588488578796,-0.9421830773353577
1663326957374940000,10.86593994140625,-2.4728806018829346,-0.9868505597114563,-0.990802526473999
1663326957384896000,10.87589599609375,-2.575632095336914,-1.3469836711883545,-0.96950364112854
1663326957394853000,10.88585302734375,-2.7085719108581543,-1.6112215518951416,-0.8651017546653748
1663326957404810000,10.89581005859375,-2.8662099838256836,-1.7050042152404785,-0.7144507169723511
1663326957414767000,10.90576708984375,-3.0590133666992188,-1.6908084154129028,-0.5997941493988037
1663326957424724200,10.91572412109375,-3.213611602783203,-1.6657980680465698,-0.6142111420631409
1663326957434680000,10.92568017578125,-3.2428627014160156,-1.6736191511154175,-0.7864395380020142
1663326957444637200,10.93563720703125,-3.1646852493286133,-1.7129853963851929,-1.1189641952514648
1663326957454593800,10.94559375,-3.040173292160034,-1.7532577514648438,-1.5521844625473022
1663326957464551000,10.955551025390625,-2.93676495552063,-1.739776372909546,-1.949022650718689
1663326957474507000,10.965507080078124,-2.954254150390625,-1.6353846788406372,-2.1974544525146484
1663326957484463900,10.9754638671875,-3.0647084712982178,-1.4140504598617554,-2.2542898654937744
1663326957494421000,10.9854208984375,-3.253319263458252,-1.0797852277755737,-2.1404776573181152
1663326957504378000,10.995378173828126,-3.53999924659729,-0.7200485467910767,-1.9070183038711548
1663326957514335000,11.0053349609375,-3.864048957824707,-0.553032398223877,-1.6394500732421875
1663326957524291000,11.015291015625,-4.113139629364014,-0.7399013638496399,-1.465325117111206
1663326957534248200,11.025248291015625,-4.21714973449707,-1.38233482837677,-1.4532159566879272
1663326957544205000,11.035205078125,-4.1288909912109375,-2.4009203910827637,-1.6305696964263916
1663326957554162000,11.045161865234375,-3.858812093734741,-3.4311013221740723,-1.9402507543563843
1663326957564118000,11.055117919921875,-3.5427322387695312,-4.184879302978516,-2.1851325035095215
1663326957574075000,11.065074951171875,-3.298182487487793,-4.508387088775635,-2.2926137447357178
1663326957584032000,11.075031982421875,-3.1620490550994873,-4.090270519256592,-2.3154730796813965
1663326957593988900,11.08498876953125,-3.2294247150421143,-2.9941861629486084,-2.3063957691192627
1663326957603945000,11.094945068359374,-3.371823310852051,-1.5074772834777832,-2.3022987842559814
1663326957613902000,11.104902099609374,-3.50459361076355,-0.054326239973306656,-2.3625547885894775
1663326957623859000,11.11485888671875,-3.5665481090545654,0.9274475574493408,-2.3595972061157227
1663326957633816000,11.124816162109376,-3.539707899093628,1.0955700874328613,-2.1843035221099854
1663326957643773200,11.134773193359376,-3.3555238246917725,0.5823840498924255,-1.8747413158416748
1663326957653729000,11.14472900390625,-3.070143699645996,-0.29755881428718567,-1.5377730131149292
1663326957663686100,11.15468603515625,-2.776233673095703,-1.1181445121765137,-1.2578513622283936
1663326957673643000,11.16464306640625,-2.5140092372894287,-1.6849956512451172,-1.0568599700927734
1663326957683600000,11.174599853515625,-2.288562059402466,-1.9181005954742432,-0.8910619616508484
1663326957693556000,11.184555908203125,-2.1590065956115723,-1.7899914979934692,-0.7756137847900391
1663326957703512800,11.194512939453125,-2.09419322013855,-1.2841187715530396,-0.7539750933647156
1663326957713470500,11.204470458984375,-2.011512517929077,-0.5521878600120544,-0.7751708626747131
1663326957723427300,11.21442724609375,-1.912282943725586,0.20917153358459473,-0.7645094394683838
1663326957733384400,11.224384521484374,-1.8677177429199219,0.8347522020339966,-0.7493166923522949
1663326957743340500,11.234340576171874,-1.8693255186080933,1.172607183456421,-0.7538326382637024
1663326957753297400,11.24429736328125,-1.8617067337036133,1.03164803981781,-0.6725350022315979
1663326957763254500,11.254254638671876,-1.8433637619018555,0.4610639214515686,-0.45158421993255615
1663326957773211400,11.26421142578125,-1.854580044746399,-0.28085795044898987,-0.20405568182468414
1663326957783167500,11.27416748046875,-1.8600400686264038,-0.8902981877326965,-0.01820804364979267
1663326957793124400,11.284124267578125,-1.8388408422470093,-1.241682529449463,0.13493846356868744
1663326957803081200,11.294081298828125,-1.8020110130310059,-1.2952959537506104,0.26072195172309875
1663326957813038300,11.304038330078125,-1.778458595275879,-1.0724880695343018,0.3235155940055847
1663326957822994400,11.313994384765625,-1.760121464729309,-0.6402596831321716,0.32565703988075256
1663326957832951300,11.323951416015625,-1.7242027521133423,-0.13549311459064484,0.34562626481056213
1663326957842908400,11.333908447265625,-1.6670191287994385,0.3578428328037262,0.41460293531417847
1663326957852865500,11.343865478515625,-1.5919218063354492,0.7855505347251892,0.5267940163612366
1663326957862822400,11.353822509765624,-1.4893171787261963,1.1242601871490479,0.6465781927108765
1663326957872778500,11.363778564453124,-1.3724234104156494,1.3612112998962402,0.7305260896682739
1663326957882735600,11.373735595703126,-1.2312703132629395,1.5246578454971313,0.7480558156967163
1663326957892692200,11.383692138671876,-1.0873829126358032,1.5780494213104248,0.683278501033783
1663326957902649300,11.3936494140625,-0.9793176054954529,1.3858275413513184,0.5329039096832275
1663326957912605200,11.403605224609375,-0.893973708152771,0.970527172088623,0.3559049367904663
1663326957922562300,11.413562255859375,-0.830758273601532,0.49716898798942566,0.19105738401412964
1663326957932519400,11.42351953125,-0.7725270390510559,0.08080875873565674,0.06419048458337784
1663326957942476300,11.433476318359375,-0.7294576168060303,-0.19085417687892914,-0.020608827471733093
1663326957952433400,11.443433349609375,-0.7102429270744324,-0.27728521823883057,-0.05055633932352066
1663326957962389500,11.453389404296875,-0.6621731519699097,-0.1473916620016098,-0.04451868683099747
1663326957972346400,11.463346435546875,-0.5944125652313232,0.08358696103096008,0.0033746848348528147
1663326957982303500,11.473303466796875,-0.508655846118927,0.3356735110282898,0.053765952587127686
1663326957992260400,11.48326025390625,-0.40508902072906494,0.5923634171485901,0.08972816914319992
1663326958002216400,11.493216552734374,-0.28590404987335205,0.8067457675933838,0.11138526350259781
1663326958012173300,11.50317333984375,-0.17609508335590363,0.9223389029502869,0.1070343479514122
1663326958022130400,11.51313037109375,-0.0706818550825119,0.9401541352272034,0.07690121233463287
1663326958032087300,11.52308740234375,-0.009771253913640976,0.8055018186569214,0.04734103009104729
1663326958042043400,11.53304345703125,0.02312624268233776,0.548721969127655,0.0536055862903595
1663326958052000300,11.543000244140625,0.03787080943584442,0.2701775133609772,0.09555903822183609
1663326958061957400,11.552957275390625,0.04333828017115593,0.05852678045630455,0.15687139332294464
1663326958071914500,11.56291455078125,0.04270321503281593,-0.059627827256917953,0.22189576923847198
1663326958081871400,11.572871337890625,0.06111124902963638,-0.09018094837665558,0.26906833052635193
1663326958091827500,11.582827392578125,0.09965723007917404,-0.0574263371527195,0.28903722763061523
1663326958101784600,11.59278466796875,0.16719260811805725,0.030264632776379585,0.2768050730228424
1663326958111741200,11.6027412109375,0.23318883776664734,0.1808292120695114,0.23958125710487366
1663326958121698300,11.6126982421875,0.28181442618370056,0.36222589015960693,0.18395182490348816
1663326958131654400,11.622654296875,0.3084885776042938,0.5319742560386658,0.12438458949327469
1663326958141611300,11.632611328125,0.3100084364414215,0.6402796506881714,0.09331055730581284
1663326958151568400,11.642568359375,0.30033227801322937,0.6340368390083313,0.10104500502347946
1663326958161525500,11.652525390625,0.2864564061164856,0.5366452932357788,0.13980785012245178
1663326958171482400,11.662482421875,0.26701948046684265,0.3750177025794983,0.19870029389858246
1663326958181438500,11.6724384765625,0.24136444926261902,0.1680847555398941,0.24819034337997437
1663326958191395300,11.682395263671875,0.22477979958057404,-0.026865985244512558,0.2735505998134613
1663326958201352400,11.6923525390625,0.2241331785917282,-0.1631266325712204,0.2533888518810272
1663326958211309300,11.702309326171875,0.240026593208313,-0.21696880459785461,0.18918152153491974
1663326958221265400,11.712265380859375,0.26396334171295166,-0.19380222260951996,0.09608832746744156
1663326958231222300,11.72222216796875,0.2804301083087921,-0.08525700122117996,0.00872948206961155
1663326958241179400,11.732179443359374,0.27823808789253235,0.07977509498596191,-0.054785311222076416
1663326958251136300,11.74213623046875,0.26274916529655457,0.2212950587272644,-0.07599786669015884
1663326958261093400,11.75209326171875,0.2341499924659729,0.3056999444961548,-0.06476225703954697
1663326958271049500,11.762049560546876,0.2110653519630432,0.32365158200263977,-0.03849101811647415
1663326958281006300,11.77200634765625,0.19553859531879425,0.2588517963886261,-0.0001833103597164154
1663326958290963500,11.78196337890625,0.2010299265384674,0.1365777552127838,0.043917201459407806
1663326958300920600,11.791920654296876,0.21462564170360565,-0.003449388314038515,0.08820343762636185
1663326958310876400,11.80187646484375,0.21625100076198578,-0.14401111006736755,0.10346774011850357
1663326958320833500,11.81183349609375,0.1864853799343109,-0.2289869785308838,0.10076489299535751
1663326958330790400,11.821790283203125,0.12406732887029648,-0.24681097269058228,0.10197655856609344
1663326958340747300,11.831747314453125,0.06439414620399475,-0.21491535007953644,0.12131830304861069
1663326958350704400,11.841704345703125,0.016048936173319817,-0.16643604636192322,0.15217448770999908
1663326958360660200,11.85166015625,-0.014728418551385403,-0.11463489383459091,0.17888014018535614
1663326958370617300,11.861617431640624,-0.026141639798879623,-0.06789012253284454,0.19083333015441895
1663326958380574500,11.871574462890624,-0.03374176844954491,-0.018131615594029427,0.178350567817688
1663326958390531300,11.88153125,-0.04588595777750015,-0.0009830431081354618,0.15154403448104858
1663326958400487400,11.8914873046875,-0.06205746904015541,-0.04887600243091583,0.0948495864868164
1663326958410444500,11.901444580078126,-0.0658787339925766,-0.13732537627220154,0.03164356201887131
1663326958420401400,11.9114013671875,-0.06654398888349533,-0.23420317471027374,0.0069691091775894165
1663326958430358500,11.921358642578125,-0.05295323580503464,-0.3271338641643524,0.023843003436923027
1663326958440315400,11.9313154296875,-0.03268285468220711,-0.384481817483902,0.046328604221343994
1663326958450271500,11.941271484375,-0.02114885300397873,-0.36264297366142273,0.052898261696100235
1663326958460228400,11.951228271484375,-0.012249634601175785,-0.2843031585216522,0.03691690042614937
1663326958470185200,11.961185302734375,-0.009989365935325623,-0.1688886284828186,0.010422696359455585
1663326958480142300,11.971142333984375,0.0024883421137928963,-0.06721366196870804,-0.02568444050848484
1663326958490098400,11.981098388671874,0.029681766405701637,-0.0038321479223668575,-0.06794285029172897
1663326958500055300,11.99105517578125,0.06975807994604111,0.02615850791335106,-0.08953815698623657
1663326958510012400,12.001012451171874,0.09602686017751694,0.021392716094851494,-0.0826697051525116
1663326958519969500,12.010969482421874,0.10174253582954407,-0.04512638971209526,-0.06957227736711502
1663326958529926400,12.020926513671874,0.09186340868473053,-0.15785051882266998,-0.05110535770654678
1663326958539882500,12.030882568359376,0.07610761374235153,-0.2709975838661194,-0.033060044050216675
1663326958549839600,12.040839599609376,0.07698410004377365,-0.3592749536037445,-0.0023754495196044445
1663326958559796200,12.050796142578125,0.08502444624900818,-0.41943204402923584,0.035573530942201614
1663326958569753300,12.06075341796875,0.09039618819952011,-0.4187443256378174,0.036553945392370224
1663326958579709200,12.070709228515625,0.09303271770477295,-0.34211641550064087,0.01587742753326893
1663326958589666300,12.080666259765625,0.10229804366827011,-0.2286999225616455,0.002430340275168419
1663326958599623400,12.09062353515625,0.11988342553377151,-0.1301749348640442,-0.027380019426345825
1663326958609580300,12.100580322265625,0.13998375833034515,-0.02948644943535328,-0.08380570262670517
1663326958619537400,12.110537353515625,0.14959511160850525,0.08428645133972168,-0.1390945166349411
1663326958629493500,12.120493408203124,0.14920823276042938,0.169480562210083,-0.14902526140213013
1663326958639450400,12.130450439453124,0.14913339912891388,0.21171323955059052,-0.11571871489286423
1663326958649407500,12.140407470703124,0.13667933642864227,0.17516854405403137,-0.049324359744787216
1663326958659364400,12.1503642578125,0.12122686207294464,0.11020446568727493,0.01978972740471363
1663326958669320400,12.160320556640626,0.0939428061246872,0.03599996492266655,0.08937326073646545
1663326958679277300,12.17027734375,0.06567361950874329,-0.0235094353556633,0.13659003376960754
1663326958689234400,12.180234375,0.05690604820847511,-0.060031332075595856,0.1502419114112854
1663326958699191300,12.19019140625,0.05877558887004852,-0.054727911949157715,0.13887155055999756
1663326958709147600,12.200147705078125,0.05780943110585213,-0.02971148118376732,0.12130339443683624
1663326958719103500,12.210103515625,0.06372697651386261,-0.0018705283291637897,0.09992141276597977
1663326958729060600,12.220060546875,0.0691680833697319,0.019793754443526268,0.06183154881000519
1663326958739017700,12.230017822265625,0.06682024151086807,0.039267320185899734,0.004888902418315411
1663326958748974600,12.239974609375,0.04778904467821121,0.054153233766555786,-0.047277502715587616
1663326958758930700,12.2499306640625,0.018379222601652145,0.0412273146212101,-0.09696276485919952
1663326958768887600,12.259887451171876,-0.0022969613783061504,0.006952948868274689,-0.13356992602348328
1663326958778844700,12.2698447265625,-0.01009895745664835,-0.024481672793626785,-0.14531846344470978
1663326958788801800,12.2798017578125,-0.014447052031755447,-0.062922403216362,-0.13415390253067017
1663326958798758700,12.289758544921876,-0.0075582535937428474,-0.0902608186006546,-0.11013805121183395
1663326958808714800,12.29971484375,-0.0035399673506617546,-0.08080174028873444,-0.08654233813285828
1663326958818671600,12.309671630859375,-0.0043847220949828625,-0.03924097493290901,-0.06821979582309723
1663326958828628500,12.31962841796875,-0.007005311083048582,-0.0014339718036353588,-0.0528482124209404
1663326958838585600,12.329585693359375,-0.008973387070000172,0.02537926658987999,-0.045599885284900665
1663326958848541700,12.339541748046875,-0.020305251702666283,0.03855434060096741,-0.053734950721263885
1663326958858498600,12.34949853515625,-0.03419603407382965,0.03689518943428993,-0.050355397164821625
1663326958868455700,12.35945556640625,-0.0365154929459095,0.0275026336312294,-0.050602179020643234
1663326958878412800,12.369412841796875,-0.014108722098171711,-0.00914272852241993,-0.08065807819366455
1663326958888369700,12.37936962890625,0.01547238789498806,-0.052105508744716644,-0.12897469103336334
1663326958898325800,12.38932568359375,0.033086538314819336,-0.07983754575252533,-0.16794073581695557
1663326958908283000,12.399282958984376,0.042125482112169266,-0.089774489402771,-0.1854238361120224
1663326958918239500,12.409239501953126,0.04324427619576454,-0.061707694083452225,-0.17298181354999542
1663326958928196600,12.419196533203126,0.035947658121585846,-0.027992025017738342,-0.1194954589009285
1663326958938152400,12.42915234375,0.021514389663934708,-0.004151139874011278,-0.050938770174980164
1663326958948109600,12.439109619140625,0.013449912890791893,0.01612330600619316,0.006834619678556919
1663326958958066700,12.449066650390625,0.007411994505673647,0.025184445083141327,0.03597652539610863
1663326958968023600,12.4590234375,-0.0007073204033076763,0.019345169886946678,0.04745950549840927
1663326958977980700,12.468980712890625,-0.008539943024516106,0.010368186980485916,0.034137576818466187
1663326958987936800,12.478936767578125,-0.0149969682097435,-0.0010212636552751064,0.011289505288004875
1663326958997893600,12.4888935546875,-0.02090359292924404,-0.02019176259636879,-0.01961727812886238
1663326959007850800,12.498850830078124,-0.021366717293858528,-0.043220117688179016,-0.03701571002602577
1663326959017807600,12.5088076171875,-0.023710831999778748,-0.05563124641776085,-0.04698072373867035
1663326959027763700,12.518763671875,-0.026917727664113045,-0.05313708633184433,-0.05964920297265053
1663326959037720600,12.528720458984376,-0.026964865624904633,-0.046001143753528595,-0.06314992904663086
1663326959047677700,12.538677734375,-0.013694573193788528,-0.03488941118121147,-0.06130416318774223
1663326959057634600,12.548634521484376,-0.005349026061594486,-0.024755552411079407,-0.05183316394686699
1663326959067591700,12.558591796875,0.005788623355329037,-0.01265673153102398,-0.04962541535496712
1663326959077547500,12.568547607421875,0.009007319808006287,-0.008139477111399174,-0.051298946142196655
1663326959087504600,12.578504638671875,0.0012206173269078135,-0.008275714702904224,-0.04983190447092056
1663326959097461800,12.588461669921875,-0.01488431729376316,-0.013096035458147526,-0.039984866976737976
1663326959107418600,12.598418701171875,-0.031211068853735924,-0.01848450116813183,-0.023223070427775383
1663326959117374700,12.608374755859375,-0.04255001246929169,-0.035129792988300323,0.00020635593682527542
1663326959127331800,12.618331787109375,-0.04320896789431572,-0.05212496221065521,0.01711978204548359
1663326959137288400,12.628288330078124,-0.03045136108994484,-0.06732495874166489,0.01489391177892685
1663326959147245600,12.63824560546875,-0.009351913817226887,-0.0770288035273552,-0.01842290535569191
1663326959157202700,12.64820263671875,0.01905309595167637,-0.08060117065906525,-0.047086507081985474
1663326959167158500,12.658158447265626,0.04149176552891731,-0.0711279883980751,-0.06341493129730225
1663326959177115600,12.66811572265625,0.05192256718873978,-0.058722980320453644,-0.0833289846777916
1663326959187072800,12.67807275390625,0.04509543254971504,-0.0304691381752491,-0.09023133665323257
1663326959197029600,12.688029541015625,0.03439512103796005,-0.013765789568424225,-0.0637483298778534
1663326959206986800,12.69798681640625,0.028843587264418602,-0.011724265292286873,-0.011102119460701942
1663326959216942600,12.707942626953125,0.026874445378780365,-0.010123439133167267,0.02964610978960991
1663326959226899700,12.717899658203125,0.03488301485776901,0.009542512707412243,0.05100175738334656
1663326959236856600,12.727856689453125,0.04554205387830734,0.01731441542506218,0.060130536556243896
1663326959246813400,12.7378134765625,0.05132969468832016,0.03270875662565231,0.04686751216650009
1663326959256769500,12.74776953125,0.04491307586431503,0.046361181885004044,0.014385202899575233
1663326959266726700,12.7577265625,0.042394571006298065,0.03873375430703163,-0.02774248830974102
1663326959276683500,12.76768359375,0.0404275581240654,0.007728968281298876,-0.04815029352903366
1663326959286640600,12.777640625,0.03769666329026222,-0.01823653280735016,-0.05536883324384689
1663326959296597800,12.78759765625,0.039699092507362366,-0.03329058364033699,-0.06044694781303406
1663326959306553600,12.7975537109375,0.041212305426597595,-0.037752922624349594,-0.06235424056649208
1663326959316510700,12.8075107421875,0.04149460047483444,-0.01477144192904234,-0.07087475061416626
1663326959326467800,12.8174677734375,0.04429849237203598,0.01378841232508421,-0.08450677245855331
1663326959336424700,12.8274248046875,0.04422685131430626,0.028482669964432716,-0.1010119765996933
1663326959346380800,12.837380859375,0.049737244844436646,0.027365023270249367,-0.11260153353214264
1663326959356337700,12.847337646484375,0.05054924264550209,0.009114379994571209,-0.10238591581583023
1663326959366294500,12.85729443359375,0.04500821232795715,-0.02037525177001953,-0.10162463784217834
1663326959376251600,12.867251708984375,0.04509902745485306,-0.03998410329222679,-0.10907137393951416
1663326959386208500,12.87720849609375,0.04136348515748978,-0.049360789358615875,-0.10757821798324585
1663326959396164600,12.88716455078125,0.041653767228126526,-0.04319823533296585,-0.10043668746948242
1663326959406121700,12.897121826171874,0.04160143435001373,-0.037321995943784714,-0.09335244446992874
1663326959416078600,12.90707861328125,0.03931058198213577,-0.02003115601837635,-0.08407212793827057
1663326959426035700,12.91703564453125,0.04017964005470276,-0.018349062651395798,-0.07892511785030365
1663326959435992800,12.926992919921876,0.04069256782531738,-0.023210130631923676,-0.07309359312057495
1663326959445948700,12.93694873046875,0.03979752957820892,-0.0280979685485363,-0.07165010273456573
1663326959455905800,12.94690576171875,0.05006081983447075,-0.0291840061545372,-0.05925789102911949
1663326959465862700,12.956862548828125,0.06387986987829208,-0.030099011957645416,-0.04898212105035782
1663326959475819500,12.966819580078125,0.071974016726017,-0.022014984861016273,-0.044683780521154404
1663326959485775600,12.976775634765625,0.07375829666852951,-0.007559118326753378,-0.0464501827955246
1663326959495732500,12.986732421875,0.07680841535329819,0.011354917660355568,-0.046489860862493515
1663326959505689600,12.996689697265625,0.08046378940343857,0.019092118367552757,-0.03889743611216545
