time,seconds_elapsed,z,y,x
1663326947248946700,0.73994677734375,1.4055964946746826,0.034390464425086975,0.014067349024116993
1663326947258903800,0.74990380859375,1.4833003282546997,0.021279988810420036,0.018391523510217667
1663326947268860700,0.759860595703125,1.5431255102157593,-0.054613444954156876,-0.016530506312847137
1663326947278816800,0.769816650390625,1.5374585390090942,0.017294567078351974,0.015135277062654495
1663326947288773600,0.779773681640625,1.5985552072525024,0.003911917097866535,0.0035689021460711956
1663326947298730500,0.78973046875,1.676500678062439,-0.017596304416656494,-0.00264824740588665
1663326947308687600,0.7996875,1.7792904376983643,0.010491256602108479,0.00012676646292675287
1663326947318643500,0.8096435546875,1.778283953666687,-0.012322979047894478,-0.007144195958971977
1663326947328600600,0.8196005859375,1.722471833229065,-0.023130619898438454,0.0030804784037172794
1663326947338557700,0.8295576171875,1.73985755443573,0.000972852751147002,0.006518086884170771
1663326947348513500,0.839513427734375,1.6097756624221802,-0.02941647730767727,-0.007394533138722181
1663326947358470700,0.849470703125,1.4238145351409912,0.0007787083159200847,-0.002858903491869569
1663326947368427800,0.859427734375,1.340632677078247,-0.027111511677503586,-0.008252603933215141
1663326947378383600,0.869383544921875,1.4890385866165161,-0.0006689860601909459,0.00027750138542614877
1663326947388340700,0.8793408203125,1.7267718315124512,0.0001478054327890277,0.006329268682748079
1663326947398297600,0.889297607421875,1.8305578231811523,0.004175303969532251,0.00583818182349205
1663326947408253700,0.899253662109375,1.7207869291305542,-0.0041731735691428185,-0.003453587181866169
1663326947418210800,0.9092109375,1.502786636352539,-0.032339829951524734,-0.008854477666318417
1663326947428167700,0.919167724609375,1.325946569442749,-0.003695402294397354,0.00010572749306447804
1663326947438123800,0.929123779296875,1.2375246286392212,-0.004266650415956974,0.002499110298231244
1663326947448080600,0.93908056640625,1.1841719150543213,-0.00043063313933089375,0.0038059235084801912
1663326947458037500,0.94903759765625,1.112937092781067,-0.009600695222616196,-0.004279433749616146
1663326947467993900,0.958993896484375,0.8590379953384399,-0.014566426165401936,-0.0063785370439291
1663326947477950500,0.968950439453125,0.5640285015106201,-0.01372220367193222,-0.00538437906652689
1663326947487907600,0.978907470703125,0.29243186116218567,-0.008319981396198273,-0.004789961501955986
1663326947497864700,0.98886474609375,0.08027220517396927,-0.008461661636829376,-0.008235293440520763
1663326947507820500,0.998820556640625,-0.002026133006438613,-0.005422994960099459,-0.012654808349907398
1663326947517777700,1.008777587890625,0.00021837920940015465,0.0012183962389826775,-0.019478626549243927
1663326947527734800,1.01873486328125,0.0006876281695440412,0.00012090751260984689,-0.016387762501835823
1663326947537690600,1.028690673828125,-0.0007523429812863469,-0.0017712684348225594,-0.005979329347610474
1663326947547647700,1.038647705078125,-0.0022306637838482857,-0.00290417717769742,0.008312524296343327
1663326947557604600,1.0486044921875,-0.0025475798174738884,-0.010547183454036713,0.007774299941956997
1663326947567560700,1.058560791015625,-0.0003408846096135676,-0.0073428675532341,0.0017307883827015758
1663326947577517800,1.068517822265625,0.0002902845444623381,-0.002412823960185051,-0.013540309853851795
1663326947587474700,1.078474609375,0.00005219795639277436,-0.0018756643403321505,-0.01846396178007126
1663326947597430800,1.0884306640625,-0.0028879318851977587,-0.0038514635525643826,-0.013996508903801441
1663326947607387600,1.0983876953125,-0.000020506340661086142,-0.00484215933829546,-0.003977164626121521
1663326947617344500,1.108344482421875,-0.0017555557424202561,-0.005530586466193199,-0.004317516926676035
1663326947627300900,1.11830078125,-0.00043276368523947895,-0.006254167295992374,-0.005988384131342173
1663326947637257500,1.128257568359375,-0.002712695859372616,-0.0022208099253475666,-0.00412363838404417
1663326947647214600,1.138214599609375,0.00023302659974433482,-0.006666691042482853,-0.0044996771030128
1663326947657170400,1.14817041015625,-0.0020815266761928797,-0.00983398873358965,0.0025126924738287926
1663326947667127600,1.15812744140625,-0.003537210635840893,-0.014098241925239563,-0.002923884429037571
1663326947677084700,1.168084716796875,-0.0015896408585831523,-0.013865482062101364,-0.006457632873207331
1663326947687041500,1.17804150390625,-0.0012508867075666785,-0.005342567339539528,-0.0049255164340138435
1663326947696998000,1.187997802734375,-0.0007858988246880472,-0.010868626646697521,-0.008619853295385838
1663326947706955000,1.197955078125,-0.00018455706594977528,-0.014028999954462051,-0.021753765642642975
1663326947716911900,1.207911865234375,0.00791491474956274,-0.006537261418998241,-0.020444821566343307
1663326947726868000,1.217867919921875,0.17738038301467896,-0.0414571613073349,-0.03731568157672882
1663326947736824800,1.227824951171875,0.5968785881996155,-0.07955528050661087,-0.17245300114154816
1663326947746782000,1.237781982421875,0.7294435501098633,-0.150819331407547,-0.3570883572101593
1663326947756738000,1.247738037109375,0.9159745573997498,0.011494203470647335,-0.4151519238948822
1663326947766695000,1.25769482421875,1.2350654602050781,-0.03393133357167244,-0.5785810351371765
1663326947776651800,1.26765185546875,1.4916945695877075,-0.07768786698579788,-0.8807348012924194
1663326947786607600,1.277607666015625,1.5282320976257324,-0.5400674939155579,-0.8505254983901978
1663326947796564700,1.287564697265625,1.203843116760254,-1.5991989374160767,-0.2721593379974365
1663326947806521900,1.29752197265625,0.7670345902442932,-1.5167591571807861,-0.1158541664481163
1663326947816477700,1.307477783203125,0.7191038131713867,-1.2053107023239136,-0.10955632477998734
1663326947826434800,1.317434814453125,0.9345564842224121,-1.6547636985778809,-0.031002124771475792
1663326947836392000,1.327391845703125,1.397192358970642,-2.1959898471832275,-0.09061245620250702
1663326947846348800,1.337348876953125,1.7435691356658936,-2.6493256092071533,-0.11510315537452698
1663326947856305000,1.347304931640625,1.7467361688613892,-3.0025038719177246,-0.08156703412532806
1663326947866262000,1.357261962890625,1.4693048000335693,-3.149507999420166,-0.02923990972340107
1663326947876219000,1.367218994140625,1.0974133014678955,-2.631606101989746,-0.09463835507631302
1663326947886175000,1.377175048828125,0.6024482846260071,-1.597618579864502,-0.3109152615070343
1663326947896131800,1.3871318359375,0.09235043823719025,-0.7800499796867371,-0.5491046905517578
1663326947906088700,1.397088623046875,-0.03808746486902237,-0.420734703540802,-0.5815209150314331
1663326947916045000,1.407045166015625,0.07494987547397614,-0.6056454181671143,-0.40645456314086914
1663326947926001700,1.417001708984375,0.29106566309928894,-0.7625503540039062,-0.20529429614543915
1663326947935958800,1.426958740234375,0.47085487842559814,-0.6048099994659424,-0.041181523352861404
1663326947945914600,1.43691455078125,0.5873652100563049,-0.25281813740730286,0.1714327335357666
1663326947955871700,1.446871826171875,0.7471525073051453,0.024513598531484604,0.3704065680503845
1663326947965828900,1.456828857421875,0.8839074373245239,0.1905161440372467,0.5444204211235046
1663326947975785700,1.46678564453125,0.862096905708313,0.33409807085990906,0.7065345048904419
1663326947985741800,1.476741943359375,0.6773052215576172,0.4893918037414551,0.758685827255249
1663326947995699000,1.486698974609375,0.4351639747619629,0.556793212890625,0.7014606595039368
1663326948005655800,1.49665576171875,0.22665178775787354,0.5138899683952332,0.5780654549598694
1663326948015612000,1.50661181640625,0.07820718735456467,0.35725292563438416,0.4527376592159271
1663326948025569000,1.516569091796875,-0.02291703410446644,0.1955615133047104,0.4737017750740051
1663326948035526000,1.52652587890625,-0.0663052573800087,0.07133516669273376,0.6019852161407471
1663326948045482000,1.53648193359375,-0.041313882917165756,0.04096021503210068,0.7811911702156067
1663326948055438800,1.54643896484375,-0.027412449941039085,0.08037153631448746,0.9007226228713989
1663326948065395700,1.556395751953125,-0.47830426692962646,-0.013377857394516468,0.8293088674545288
1663326948075352000,1.56635205078125,-0.6753177046775818,0.15126702189445496,0.8323957324028015
1663326948085308700,1.57630859375,-0.8252353072166443,0.07688573002815247,0.8517928719520569
1663326948095265800,1.586265869140625,-0.8941997289657593,-0.3163260221481323,0.8861663341522217
1663326948105223000,1.596222900390625,-0.9750500917434692,-0.5272464752197266,0.8488538265228271
1663326948115178800,1.6061787109375,-0.9864628314971924,-0.46822553873062134,0.7294076085090637
1663326948125136000,1.616135986328125,-1.024661660194397,-0.04400687292218208,0.6179854869842529
1663326948135092700,1.6260927734375,-1.0123826265335083,0.557094395160675,0.4645410478115082
1663326948145048800,1.636048828125,-0.9543057084083557,1.0239046812057495,0.3257938027381897
1663326948155006000,1.646005859375,-0.910128116607666,1.268032193183899,0.27413806319236755
1663326948164962800,1.655962890625,-0.9021657705307007,1.295078992843628,0.24764974415302277
1663326948174919000,1.6659189453125,-0.8406947255134583,1.1263374090194702,0.2400810420513153
1663326948184876000,1.6758759765625,-0.696886420249939,0.8011419773101807,0.18398848176002502
1663326948194833000,1.6858330078125,-0.531383216381073,0.4614027738571167,0.10347285866737366
1663326948204789000,1.6957890625,-0.3951622247695923,0.20408415794372559,-0.015925703570246696
1663326948214745900,1.705745849609375,-0.3098292350769043,-0.006833404768258333,-0.15624766051769257
1663326948224702700,1.71570263671875,-0.2698240280151367,-0.18645988404750824,-0.23925866186618805
1663326948234659800,1.725659912109375,-0.2614680826663971,-0.29890894889831543,-0.24587048590183258
1663326948244615700,1.73561572265625,-0.26149284839630127,-0.27373912930488586,-0.19288690388202667
1663326948254572800,1.74557275390625,-0.24872566759586334,-0.18631768226623535,-0.0988117977976799
1663326948264530000,1.755530029296875,-0.20177599787712097,-0.12979181110858917,0.01643516682088375
1663326948274485800,1.76548583984375,-0.1312621533870697,-0.08178887516260147,0.12459225952625275
1663326948284443000,1.77544287109375,-0.036913808435201645,-0.029533924534916878,0.19735169410705566
1663326948294399700,1.785399658203125,0.07357355207204819,0.012252405285835266,0.21136923134326935
1663326948304355800,1.79535595703125,0.19303257763385773,0.03165033832192421,0.1677895337343216
1663326948314313000,1.80531298828125,0.29395943880081177,0.039023034274578094,0.11136674135923386
1663326948324269800,1.815269775390625,0.3782322406768799,0.03545040264725685,0.07657600194215775
1663326948334226000,1.825225830078125,0.44345998764038086,0.02076147124171257,0.05233244597911835
1663326948344182800,1.835182861328125,0.47424426674842834,-0.017708422616124153,0.021078919991850853
1663326948354140000,1.845139892578125,0.4898757040500641,-0.06891675293445587,0.006427006796002388
1663326948364096800,1.8550966796875,0.4894131124019623,-0.10443107038736343,0.02020966447889805
1663326948374052900,1.865052978515625,0.48062148690223694,-0.11577507108449936,0.03112116828560829
1663326948384009700,1.875009765625,0.48033490777015686,-0.10351920127868652,0.04435095191001892
1663326948393966800,1.884966796875,0.4851855933666229,-0.061226338148117065,0.06058478355407715
1663326948403922700,1.894922607421875,0.48950737714767456,-0.007694671396166086,0.09113257378339767
1663326948413879800,1.9048798828125,0.4864359498023987,0.04009468853473663,0.09300131350755692
1663326948423837000,1.9148369140625,0.48095276951789856,0.05272579565644264,0.03846163675189018
1663326948433792800,1.924792724609375,0.47244369983673096,0.008450742810964584,-0.045342449098825455
1663326948443750000,1.93475,0.4589090049266815,-0.0592779703438282,-0.12614275515079498
1663326948453706800,1.944706787109375,0.43708279728889465,-0.14190760254859924,-0.19452980160713196
1663326948463662800,1.954662841796875,0.40367448329925537,-0.19030842185020447,-0.226340189576149
1663326948473620000,1.964619873046875,0.37971723079681396,-0.20947812497615814,-0.21911317110061646
1663326948483576800,1.974576904296875,0.3578862249851227,-0.1818947046995163,-0.1669519692659378
1663326948493533000,1.984532958984375,0.3383500874042511,-0.11354760080575943,-0.08687497675418854
1663326948503489800,1.99448974609375,0.3254489302635193,-0.010245180688798428,-0.01455976814031601
1663326948513447000,2.004447021484375,0.31642642617225647,0.08263895660638809,0.01732013374567032
1663326948523403800,2.01440380859375,0.29897284507751465,0.14133262634277344,0.013863351196050644
1663326948533359900,2.02435986328125,0.2741071879863739,0.14517104625701904,-0.011521100997924805
1663326948543316700,2.034316650390625,0.2568914592266083,0.08340780436992645,-0.03157257288694382
1663326948553273900,2.04427392578125,0.2264786809682846,-0.011117099784314632,-0.03814418986439705
1663326948563229700,2.054229736328125,0.18821385502815247,-0.11404294520616531,-0.0238837618380785
1663326948573186800,2.064186767578125,0.13806918263435364,-0.18650835752487183,0.005920739844441414
1663326948583144000,2.07414404296875,0.0763176754117012,-0.19328904151916504,0.030189061537384987
1663326948593099800,2.084099853515625,0.006761499680578709,-0.16202299296855927,0.01347293145954609
1663326948603057000,2.094056884765625,-0.06071101874113083,-0.13497193157672882,-0.04050321877002716
1663326948613013800,2.104013671875,-0.12399358302354813,-0.12197224795818329,-0.10263236612081528
1663326948622971000,2.113970947265625,-0.18580901622772217,-0.14966751635074615,-0.16989582777023315
1663326948632927000,2.123927001953125,-0.2423338145017624,-0.20606635510921478,-0.1982305347919464
1663326948642883800,2.1338837890625,-0.2957365810871124,-0.2601258456707001,-0.18772995471954346
1663326948652841000,2.143841064453125,-0.3357561528682709,-0.29433655738830566,-0.15053410828113556
1663326948662796800,2.153796875,-0.37343642115592957,-0.3102923631668091,-0.10468380153179169
1663326948672754000,2.16375390625,-0.41493088006973267,-0.293003112077713,-0.06842087209224701
1663326948682710800,2.173710693359375,-0.44626882672309875,-0.24836108088493347,-0.031736359000205994
1663326948692667000,2.1836669921875,-0.48263534903526306,-0.19241125881671906,-0.005261074751615524
1663326948702624000,2.1936240234375,-0.5204530358314514,-0.12394644320011139,0.015893479809165
1663326948712580900,2.203580810546875,-0.5581591725349426,-0.0647699385881424,0.020961740985512733
1663326948722537000,2.213536865234375,-0.5908766388893127,-0.03540299832820892,0.025225196033716202
1663326948732494000,2.223494140625,-0.6179308891296387,-0.019931362941861153,0.05666913837194443
1663326948742451000,2.233450927734375,-0.6353018879890442,-0.03856576979160309,0.13052338361740112
1663326948752407000,2.243406982421875,-0.6526060104370117,-0.053464557975530624,0.19290606677532196
1663326948762364000,2.253364013671875,-0.6723003387451172,-0.057794056832790375,0.23469053208827972
1663326948772321000,2.263321044921875,-0.685310959815979,-0.04971988499164581,0.2570967674255371
1663326948782278100,2.273278076171875,-0.7068197131156921,-0.01858513616025448,0.24585610628128052
1663326948792234000,2.28323388671875,-0.7298126816749573,0.007653925102204084,0.21633389592170715
1663326948802191000,2.293191162109375,-0.7498856782913208,0.018145447596907616,0.18300975859165192
1663326948812148000,2.30314794921875,-0.7630022764205933,0.01197863183915615,0.1599787473678589
1663326948822104000,2.31310400390625,-0.7674891948699951,-0.018253572285175323,0.16439160704612732
1663326948832061000,2.32306103515625,-0.7656750679016113,-0.05823267996311188,0.18648545444011688
1663326948842018000,2.33301806640625,-0.756061851978302,-0.07864687591791153,0.21959121525287628
1663326948851974000,2.342973876953125,-0.741493821144104,-0.0857151672244072,0.24382410943508148
1663326948861931000,2.352930908203125,-0.7350494861602783,-0.08508719503879547,0.25912344455718994
1663326948871888000,2.362887939453125,-0.7435641288757324,-0.07386863231658936,0.25547143816947937
1663326948881844000,2.372843994140625,-0.7530375719070435,-0.08406853675842285,0.24018490314483643
1663326948891801000,2.382801025390625,-0.7578203082084656,-0.10241558402776718,0.21975445747375488
1663326948901758000,2.392758056640625,-0.7518548369407654,-0.11923078447580338,0.22453084588050842
1663326948911714000,2.402714111328125,-0.7347325682640076,-0.1407288908958435,0.2484007626771927
1663326948921671000,2.4126708984375,-0.7164568901062012,-0.15002837777137756,0.27058276534080505
1663326948931628000,2.4226279296875,-0.6985365152359009,-0.15029975771903992,0.26854783296585083
1663326948941585200,2.432585205078125,-0.6839109659194946,-0.14016270637512207,0.24433277547359467
1663326948951541000,2.442541015625,-0.6650952100753784,-0.13982979953289032,0.20561574399471283
1663326948961498000,2.452498046875,-0.6419677734375,-0.15197941660881042,0.15835608541965485
1663326948971455000,2.462455078125,-0.6320067644119263,-0.19214147329330444,0.10978961735963821
1663326948981411000,2.4724111328125,-0.6250628232955933,-0.24455462396144867,0.07822449505329132
1663326948991368000,2.482367919921875,-0.6350813508033752,-0.2706533372402191,0.06898199766874313
1663326949001325000,2.492324951171875,-0.6465843319892883,-0.2870967388153076,0.09259917587041855
1663326949011281000,2.502281005859375,-0.6514728665351868,-0.30120137333869934,0.13503292202949524
1663326949021238000,2.512238037109375,-0.6556092500686646,-0.30273857712745667,0.17175817489624023
1663326949031195000,2.52219482421875,-0.6497207283973694,-0.2958897054195404,0.19568774104118347
1663326949041151000,2.53215087890625,-0.6437180042266846,-0.2908930778503418,0.19919513165950775
1663326949051108000,2.542108154296875,-0.6355586051940918,-0.279818058013916,0.18654564023017883
1663326949061065000,2.55206494140625,-0.616873562335968,-0.28139784932136536,0.17059437930583954
1663326949071022000,2.56202197265625,-0.6065170764923096,-0.30484992265701294,0.18100707232952118
1663326949080978000,2.57197802734375,-0.6000592112541199,-0.32284650206565857,0.20999424159526825
1663326949090935000,2.58193505859375,-0.5986176133155823,-0.33696791529655457,0.24216443300247192
1663326949100892200,2.59189208984375,-0.5984658002853394,-0.33380380272865295,0.2652929127216339
1663326949110848000,2.601847900390625,-0.5967574119567871,-0.3171188235282898,0.26461061835289
1663326949120805000,2.61180517578125,-0.5942082405090332,-0.2943519949913025,0.2508135735988617
1663326949130762000,2.621761962890625,-0.5911738276481628,-0.2625035345554352,0.22119230031967163
1663326949140718000,2.631718017578125,-0.5862259268760681,-0.24206243455410004,0.19186611473560333
1663326949150675000,2.641675048828125,-0.5812489986419678,-0.23786422610282898,0.18093915283679962
1663326949160631800,2.6516318359375,-0.5772178173065186,-0.27451011538505554,0.19377213716506958
1663326949170588000,2.661587890625,-0.5594923496246338,-0.3535809814929962,0.20767463743686676
1663326949180545000,2.671544921875,-0.5367952585220337,-0.4425097703933716,0.19684915244579315
1663326949190502000,2.681501953125,-0.5199462175369263,-0.5341147780418396,0.16218970715999603
1663326949200459000,2.691458984375,-0.5035656690597534,-0.6212331652641296,0.10504226386547089
1663326949210415000,2.7014150390625,-0.48407745361328125,-0.6486994028091431,0.03958602622151375
1663326949220372000,2.7113720703125,-0.4751662611961365,-0.5979523658752441,-0.0028581044171005487
1663326949230329000,2.7213291015625,-0.4726375937461853,-0.49370265007019043,-0.017833059653639793
1663326949240285000,2.731284912109375,-0.47370603680610657,-0.34879714250564575,-0.020918332040309906
1663326949250242000,2.741241943359375,-0.4737206995487213,-0.22219765186309814,-0.015044462867081165
1663326949260199200,2.75119921875,-0.4718913733959198,-0.15525829792022705,-0.005046157632023096
1663326949270155000,2.761155029296875,-0.461343914270401,-0.18523509800434113,-0.004315918777137995
1663326949280112000,2.771112060546875,-0.44534870982170105,-0.28078532218933105,-0.02961062267422676
1663326949290069000,2.781069091796875,-0.4248948395252228,-0.39071157574653625,-0.058223359286785126
1663326949300025000,2.791025146484375,-0.3964589238166809,-0.45449745655059814,-0.07844553887844086
1663326949309982000,2.80098193359375,-0.3814679980278015,-0.4350356161594391,-0.09532278776168823
1663326949319938800,2.810938720703125,-0.37755048274993896,-0.3437879979610443,-0.09471345692873001
1663326949329896000,2.82089599609375,-0.37515363097190857,-0.20291875302791595,-0.08095183968544006
1663326949339852000,2.83085205078125,-0.3752303421497345,-0.04653501138091087,-0.07244357466697693
1663326949349809000,2.840808837890625,-0.3837015926837921,0.07183157652616501,-0.0772809386253357
1663326949359766000,2.85076611328125,-0.41478174924850464,0.11681956052780151,-0.0947083979845047
1663326949369722000,2.86072216796875,-0.45198237895965576,0.05337800458073616,-0.11475454270839691
1663326949379679000,2.870678955078125,-0.5082808136940002,-0.08751759678125381,-0.12273497134447098
1663326949389636000,2.880635986328125,-0.5783536434173584,-0.27199795842170715,-0.0956631451845169
1663326949399592000,2.890592041015625,-0.6330805420875549,-0.4685373902320862,-0.03782940283417702
1663326949409549000,2.900549072265625,-0.6731240749359131,-0.5789272785186768,0.03519979864358902
1663326949419506200,2.910506103515625,-0.6993026733398438,-0.5275804400444031,0.1029634028673172
1663326949429462800,2.920462890625,-0.7663445472717285,-0.3037007749080658,0.16873228549957275
1663326949439419100,2.930419189453125,-0.8791787028312683,0.02888890542089939,0.21985992789268494
1663326949449376000,2.9403759765625,-1.0186707973480225,0.40097272396087646,0.23380689322948456
1663326949459332900,2.950332763671875,-1.2100962400436401,0.683204174041748,0.24349574744701385
1663326949469289000,2.9602890625,-1.4597680568695068,0.7297929525375366,0.2844589054584503
1663326949479245800,2.970245849609375,-1.9208505153656006,0.5999377369880676,0.4019511640071869
1663326949489203000,2.980202880859375,-2.033644437789917,-0.07008161395788193,0.42967653274536133
1663326949499159000,2.990158935546875,-1.913650393486023,-0.4793740510940552,0.4610712230205536
1663326949509116000,3.000115966796875,-2.0324950218200684,-0.7204654812812805,0.4756070077419281
1663326949519073000,3.010072998046875,-2.087096691131592,-0.8617973327636719,0.4999235272407532
1663326949529030100,3.020030029296875,-2.1638810634613037,-0.6711858510971069,0.4386711120605469
1663326949538986000,3.029986083984375,-2.3739449977874756,-0.2731894552707672,0.3020019233226776
1663326949548943000,3.039943115234375,-2.570253610610962,0.2424107789993286,0.1010536476969719
1663326949558900200,3.049900146484375,-2.692124128341675,0.5894896388053894,-0.18246887624263763
1663326949568856000,3.05985595703125,-2.730990171432495,0.8830914497375488,-0.6247637271881104
1663326949578813200,3.069813232421875,-2.7472007274627686,0.6880772113800049,-1.11798894405365
1663326949588769800,3.079769775390625,-2.5576276779174805,0.3884441554546356,-1.672021508216858
1663326949598726100,3.08972607421875,-2.2075374126434326,0.12729403376579285,-2.0939199924468994
1663326949608683000,3.09968310546875,-1.7877006530761719,-0.03880838304758072,-2.3679935932159424
1663326949618640000,3.109639892578125,-1.370980143547058,-0.04507586359977722,-2.5846164226531982
1663326949628597000,3.119596923828125,-1.0569851398468018,0.0418236143887043,-2.8315367698669434
1663326949638552800,3.129552734375,-0.8543766736984253,0.14831863343715668,-3.0882840156555176
1663326949648510000,3.139510009765625,-0.7543209195137024,0.24945643544197083,-3.1105151176452637
1663326949658467000,3.149467041015625,-0.7011597156524658,0.20777156949043274,-2.7449920177459717
1663326949668423000,3.1594228515625,-0.6872398853302002,-0.14255794882774353,-1.8498798608779907
1663326949678380000,3.169380126953125,-0.6508496403694153,-0.7922539114952087,-0.569645881652832
1663326949688337200,3.179337158203125,-0.535210132598877,-1.5216686725616455,0.4837022125720978
1663326949698293200,3.189293212890625,-0.39046069979667664,-2.096515417098999,1.0814268589019775
1663326949708250000,3.19925,-0.24184219539165497,-2.040131092071533,1.2521120309829712
1663326949718207200,3.209207275390625,-0.23451103270053864,-1.0096949338912964,0.5793760418891907
1663326949728164000,3.2191640625,-0.5347235798835754,0.3572066128253937,-0.9173393845558167
1663326949738120200,3.2291201171875,-0.9485527276992798,1.1786314249038696,-3.033219337463379
1663326949748077000,3.2390771484375,-0.6671298146247864,0.9313220977783203,-5.393984317779541
1663326949758034000,3.249033935546875,0.48824450373649597,-0.6006925106048584,-7.441015720367432
1663326949767990000,3.258989990234375,1.9592785835266113,-2.2302000522613525,-8.825776100158691
1663326949777947100,3.268947021484375,3.149566888809204,-3.1756176948547363,-9.211897850036621
1663326949787904000,3.278904052734375,3.3714075088500977,-2.5841352939605713,-8.61248779296875
1663326949797860000,3.288860107421875,2.600295305252075,-1.0290396213531494,-7.189165115356445
1663326949807817000,3.29881689453125,0.7763713598251343,-0.12160605937242508,-4.808804988861084
1663326949817774000,3.308774169921875,-0.710029661655426,1.430000901222229,-2.231027126312256
1663326949827730200,3.318730224609375,-1.8630141019821167,2.5577139854431152,-0.025827068835496902
1663326949837687000,3.32868701171875,-2.452286720275879,2.693005323410034,1.8489093780517578
1663326949847644200,3.33864404296875,-2.566682815551758,2.2610414028167725,2.992812156677246
1663326949857601300,3.348601318359375,-2.3285040855407715,1.7044854164123535,3.529747486114502
1663326949867557000,3.35855712890625,-1.8347091674804688,1.2777631282806396,3.5711183547973633
1663326949877514200,3.36851416015625,-1.2038795948028564,0.8710978627204895,3.2354371547698975
1663326949887471000,3.37847119140625,-0.5077393651008606,0.6141606569290161,2.6386141777038574
1663326949897427200,3.38842724609375,0.15988580882549286,0.6098681688308716,1.9113179445266724
1663326949907384000,3.398384033203125,0.7073430418968201,0.6928421258926392,1.0889836549758911
1663326949917341000,3.4083408203125,1.1074358224868774,0.8027081489562988,0.28254327178001404
1663326949927298000,3.418298095703125,1.3533686399459839,0.599675714969635,-0.32076337933540344
1663326949937254100,3.428254150390625,1.3468742370605469,0.2587069272994995,-0.5937610864639282
1663326949947211000,3.4382109375,1.069717288017273,-0.012525112368166447,-0.568231999874115
1663326949957168000,3.448168212890625,0.713484525680542,-0.28677237033843994,-0.3808216452598572
1663326949967124000,3.4581240234375,0.3837079703807831,-0.4045085906982422,-0.14818520843982697
1663326949977081000,3.4680810546875,0.078238345682621,-0.23338106274604797,-0.09599417448043823
1663326949987038200,3.4780380859375,-0.1544811874628067,-0.052322592586278915,-0.1948472559452057
1663326949996994000,3.487994140625,-0.26551875472068787,0.07751502841711044,-0.40584230422973633
1663326950006951200,3.497951171875,-0.25971677899360657,0.16558949649333954,-0.6442428827285767
1663326950016908300,3.507908203125,-0.17237603664398193,0.16897358000278473,-0.8859796524047852
1663326950026865000,3.517864990234375,-0.05014332756400108,0.0917283222079277,-0.9317822456359863
1663326950036821200,3.5278212890625,0.06469004601240158,0.005017928313463926,-0.751647412776947
1663326950046778000,3.537778076171875,0.16367840766906738,-0.11732316762208939,-0.42401573061943054
1663326950056735000,3.54773486328125,0.213018536567688,-0.21313996613025665,-0.041911497712135315
1663326950066691000,3.557691162109375,0.22073477506637573,-0.1014816164970398,0.27825427055358887
1663326950076648000,3.56764794921875,0.1991834044456482,0.10876669734716415,0.4532300531864166
1663326950086605000,3.57760498046875,0.12167929857969284,0.29429101943969727,0.4830454885959625
1663326950096561200,3.58756103515625,0.008042479865252972,0.45791855454444885,0.36308979988098145
1663326950106518000,3.59751806640625,-0.09851671755313873,0.49247705936431885,0.14766189455986023
1663326950116475100,3.60747509765625,-0.14741289615631104,0.42241010069847107,-0.15945090353488922
1663326950126432300,3.617432373046875,-0.11524483561515808,0.316428542137146,-0.4613865315914154
1663326950136388000,3.62738818359375,-0.0203366968780756,0.14076563715934753,-0.6572449803352356
1663326950146345200,3.63734521484375,0.07562525570392609,-0.03235607594251633,-0.6758793592453003
1663326950156302300,3.64730224609375,0.13878238201141357,-0.04928658902645111,-0.5302122235298157
1663326950166258200,3.657258056640625,0.1622363030910492,0.10216312110424042,-0.28596463799476624
1663326950176215300,3.66721533203125,0.15764182806015015,0.27752161026000977,-0.052737511694431305
1663326950186172000,3.677171875,0.1518465131521225,0.34810870885849,0.11544377356767654
1663326950196129000,3.68712890625,0.1572045385837555,0.3109639883041382,0.14275261759757996
1663326950206085000,3.697085205078125,0.1739148050546646,0.18639597296714783,0.04079829528927803
1663326950216042000,3.7070419921875,0.19510957598686218,0.019060775637626648,-0.1085887923836708
1663326950225999000,3.7169990234375,0.2327357828617096,-0.15936435759067535,-0.16652639210224152
1663326950235955000,3.726954833984375,0.29111093282699585,-0.2666356861591339,-0.11723048239946365
1663326950245912000,3.736912109375,0.31624266505241394,-0.23483461141586304,-0.037225399166345596
1663326950255869200,3.746869140625,0.29731982946395874,-0.07481618225574493,0.02436818927526474
1663326950265825000,3.756824951171875,0.2636446952819824,0.12084599584341049,0.06811700016260147
1663326950275782100,3.7667822265625,0.23199355602264404,0.2810010313987732,0.0825585275888443
1663326950285739300,3.7767392578125,0.23241832852363586,0.2906360924243927,0.05007888004183769
1663326950295696100,3.786696044921875,0.26251524686813354,0.10947589576244354,0.0019462381023913622
1663326950305652200,3.79665234375,0.2750166654586792,-0.124973364174366,-0.016500413417816162
1663326950315609000,3.806609130859375,0.2787086069583893,-0.34113627672195435,-0.01782134175300598
1663326950325566000,3.81656591796875,0.27485179901123047,-0.5260478258132935,-0.0035486621782183647
1663326950335522000,3.82652197265625,0.25304850935935974,-0.5768492221832275,0.023120231926441193
1663326950345479000,3.83647900390625,0.20096106827259064,-0.4532569646835327,0.042748793959617615
1663326950355436000,3.84643603515625,0.11325731873512268,-0.210592120885849,0.04513498768210411
1663326950365393200,3.85639306640625,0.012535233050584793,0.05295296385884285,0.028977589681744576
1663326950375349000,3.866348876953125,-0.04945330321788788,0.2358255684375763,-0.015658853575587273
1663326950385306000,3.87630615234375,-0.08712132275104523,0.2969096899032593,-0.08622383326292038
1663326950395263200,3.88626318359375,-0.10045842826366425,0.21251413226127625,-0.16330796480178833
1663326950405219000,3.896218994140625,-0.10933128744363785,0.044314734637737274,-0.23817874491214752
1663326950415176200,3.90617626953125,-0.09584823250770569,-0.13614851236343384,-0.27415937185287476
1663326950425133000,3.916133056640625,-0.052495963871479034,-0.24518631398677826,-0.23639708757400513
1663326950435090200,3.926090087890625,-0.015239406377077103,-0.24119611084461212,-0.15401726961135864
1663326950445046300,3.93604638671875,0.0052027516067028046,-0.16312234103679657,-0.0632423534989357
1663326950455003100,3.946003173828125,0.023396136239171028,-0.041546378284692764,-0.03825577720999718
1663326950464960000,3.9559599609375,0.05182404816150665,0.04800880327820778,-0.09795133024454117
1663326950474916000,3.965916015625,0.09527139365673065,0.047206658869981766,-0.18287234008312225
1663326950484873000,3.975873046875,0.16157957911491394,-0.046967510133981705,-0.27990594506263733
1663326950494830000,3.985830078125,0.21806229650974274,-0.1989932656288147,-0.36300376057624817
1663326950504786000,3.995785888671875,0.24987775087356567,-0.36896419525146484,-0.41214361786842346
1663326950514743000,4.005742919921875,0.24515116214752197,-0.5164966583251953,-0.3966807723045349
1663326950524700200,4.0157001953125,0.2204871028661728,-0.6052718162536621,-0.30785155296325684
1663326950534657000,4.025656982421875,0.17153526842594147,-0.5810924172401428,-0.15858964622020721
1663326950544613000,4.035613037109375,0.0855410024523735,-0.44462165236473083,-0.016025304794311523
1663326950554570200,4.0455703125,-0.031193073838949203,-0.19966357946395874,0.055392686277627945
1663326950564527000,4.055527099609375,-0.13113804161548615,0.09936627000570297,-0.05903002992272377
1663326950574483200,4.065483154296875,-0.1863781362771988,0.29845380783081055,-0.3461896479129791
1663326950584440000,4.075440185546875,-0.19764463603496552,0.19193747639656067,-0.5525345206260681
1663326950594397200,4.085397216796875,-0.16289997100830078,-0.15646737813949585,-0.48571690917015076
1663326950604354000,4.09535400390625,-0.12112003564834595,-0.5266401171684265,-0.23904719948768616
1663326950614310100,4.10531005859375,-0.13280650973320007,-0.7484683394432068,0.06573586910963058
1663326950624267000,4.11526708984375,-0.2280813753604889,-0.7513480186462402,0.38173404335975647
1663326950634224000,4.12522412109375,-0.3575493395328522,-0.5275250673294067,0.6153672933578491
1663326950644180000,4.135179931640625,-0.48387691378593445,-0.14657984673976898,0.7318931221961975
1663326950654137000,4.14513720703125,-0.5739149451255798,0.2675187885761261,0.700697124004364
1663326950664094200,4.15509423828125,-0.5842416286468506,0.5276212096214294,0.4002624452114105
1663326950674051000,4.165051025390625,-0.5245040059089661,0.5278164148330688,-0.010129067115485668
1663326950684007200,4.175007080078125,-0.41613754630088806,0.21899759769439697,-0.20598192512989044
1663326950693964000,4.184964111328125,-0.24431653320789337,-0.2870115339756012,-0.09821178764104843
1663326950703921200,4.194921142578125,-0.05350929871201515,-0.9217314720153809,0.19656658172607422
1663326950713877000,4.204876953125,0.08304641395807266,-1.3794060945510864,0.5388395190238953
1663326950723834000,4.214834228515625,0.09049234539270401,-1.470451831817627,0.8596169948577881
1663326950733791000,4.224791015625,-0.024634506553411484,-1.1439381837844849,1.071282148361206
1663326950743747800,4.234747802734375,-0.24888038635253906,-0.5309792160987854,1.0788097381591797
1663326950753704200,4.2447041015625,-0.5016742944717407,0.1702345758676529,0.9205392003059387
1663326950763660800,4.254660888671875,-0.6779345273971558,0.7708469033241272,0.6420244574546814
1663326950773618000,4.264617919921875,-0.735065758228302,1.0980777740478516,0.20910687744617462
1663326950783573800,4.27457373046875,-0.6552561521530151,1.0430794954299927,-0.39135950803756714
1663326950793531000,4.28453076171875,-0.5339560508728027,0.7038953304290771,-0.7617436647415161
1663326950803488000,4.294488037109375,-0.39857667684555054,0.20618513226509094,-0.6859636902809143
1663326950813445000,4.304445068359375,-0.24417191743850708,-0.15787191689014435,-0.2998974919319153
1663326950823401000,4.31440087890625,-0.16328053176403046,-0.23310887813568115,0.15716750919818878
1663326950833358000,4.324358154296875,-0.20872019231319427,0.02947533316910267,0.5128646492958069
1663326950843315000,4.33431494140625,-0.3226185142993927,0.5306273698806763,0.6981146335601807
1663326950853271000,4.34427099609375,-0.43291839957237244,1.0204887390136719,0.6968810558319092
1663326950863228200,4.354228271484375,-0.4660113751888275,1.3962876796722412,0.5751932859420776
1663326950873185000,4.36418505859375,-0.37612807750701904,1.489705204963684,0.36884620785713196
1663326950883142000,4.374141845703125,-0.1979125440120697,1.238202691078186,0.04308941215276718
1663326950893098000,4.384097900390625,0.013333382084965706,0.8218059539794922,-0.20180395245552063
1663326950903054800,4.394054931640625,0.20692148804664612,0.3269576132297516,-0.17554812133312225
1663326950913012000,4.404011962890625,0.3963595926761627,-0.10272610932588577,0.06487193703651428
1663326950922967800,4.4139677734375,0.561498761177063,-0.33654579520225525,0.44197607040405273
1663326950932925000,4.423925048828125,0.6546571850776672,-0.35375887155532837,0.8024991154670715
1663326950942882000,4.433882080078125,0.6579379439353943,-0.1908426582813263,1.049339771270752
1663326950952839000,4.4438388671875,0.635466456413269,0.08207596093416214,1.1986126899719238
1663326950962795000,4.453794921875,0.5974295735359192,0.30286452174186707,1.223207950592041
1663326950972752000,4.463751953125,0.5521619915962219,0.38631922006607056,1.0914413928985596
1663326950982709000,4.473708984375,0.5413380861282349,0.3148348927497864,0.8991316556930542
1663326950992665000,4.4836650390625,0.5755251049995422,0.09914549440145493,0.8232941627502441
1663326951002622000,4.4936220703125,0.6336832046508789,-0.2228919267654419,0.945694625377655
1663326951012579000,4.5035791015625,0.7063603401184082,-0.5917919278144836,1.1949976682662964
1663326951022536000,4.513535888671875,0.7526591420173645,-0.9086079597473145,1.4142959117889404
1663326951032492000,4.523491943359375,0.7560831308364868,-1.048200249671936,1.4593899250030518
1663326951042449000,4.533448974609375,0.7349661588668823,-0.9616796970367432,1.3432369232177734
1663326951052406000,4.543406005859375,0.6640834212303162,-0.7249968647956848,1.1447526216506958
1663326951062361900,4.55336181640625,0.5633427500724792,-0.4455606937408447,0.9052270650863647
1663326951072319000,4.563319091796875,0.488168329000473,-0.2005663812160492,0.6888335347175598
1663326951082275800,4.57327587890625,0.49508005380630493,-0.042207106947898865,0.5255913734436035
1663326951092233000,4.58323291015625,0.5639155507087708,0.07137990742921829,0.5453589558601379
1663326951102189000,4.59318896484375,0.5797438025474548,0.03960413485765457,0.7444975972175598
1663326951112146000,4.60314599609375,0.5492724180221558,-0.16102856397628784,0.9702902436256409
1663326951122103000,4.61310302734375,0.4996532201766968,-0.5066946148872375,1.1068936586380005
1663326951132059000,4.623058837890625,0.439302533864975,-0.8580079078674316,1.1463720798492432
1663326951142016000,4.63301611328125,0.38339054584503174,-1.0926257371902466,1.1477869749069214
1663326951151973000,4.64297314453125,0.34209394454956055,-1.1922838687896729,1.1474533081054688
1663326951161930000,4.652929931640625,0.3374030590057373,-1.1229058504104614,1.1782668828964233
1663326951171886000,4.662885986328125,0.32145926356315613,-0.8978338837623596,1.2235499620437622
1663326951181843000,4.672843017578125,0.2348407357931137,-0.5783293843269348,1.2316539287567139
1663326951191799800,4.6827998046875,0.14637266099452972,-0.25214648246765137,1.179354190826416
1663326951201756000,4.692755859375,0.09468390047550201,0.025185247883200645,1.1009340286254883
1663326951211713000,4.702713134765625,0.076435387134552,0.18476611375808716,1.0300140380859375
1663326951221670000,4.712669921875,0.13888464868068695,0.19938847422599792,0.9593909978866577
1663326951231627000,4.722626953125,0.24074283242225647,0.0790916234254837,0.9100407361984253
1663326951241582800,4.732582763671875,0.31733134388923645,-0.12091496586799622,0.8803028464317322
1663326951251540000,4.7425400390625,0.3449786901473999,-0.27904629707336426,0.8504964709281921
1663326951261497000,4.7524970703125,0.3435549736022949,-0.3202650845050812,0.8152521848678589
1663326951271454000,4.762453857421875,0.31934335827827454,-0.24690166115760803,0.7772078514099121
1663326951281410000,4.77241015625,0.2777453362941742,-0.08240699023008347,0.7286099791526794
1663326951291367200,4.7823671875,0.24556076526641846,0.1067219153046608,0.6655330061912537
1663326951301323800,4.79232373046875,0.24968840181827545,0.24452106654644012,0.5777208805084229
1663326951311280000,4.802280029296875,0.2947107255458832,0.3212142288684845,0.4290115535259247
1663326951321237000,4.812237060546875,0.36802995204925537,0.34661173820495605,0.2727836072444916
1663326951331193900,4.82219384765625,0.43935099244117737,0.3297129273414612,0.14704643189907074
1663326951341151000,4.83215087890625,0.4856673777103424,0.3007792830467224,0.0824248343706131
1663326951351106800,4.84210693359375,0.47938522696495056,0.3134114444255829,0.0640634074807167
1663326951361064000,4.85206396484375,0.4177490472793579,0.4049168527126312,0.06217548996210098
1663326951371021000,4.86202099609375,0.34331634640693665,0.5512980222702026,0.049682602286338806
1663326951380977000,4.871976806640625,0.2847853899002075,0.6918538212776184,0.027288611978292465
1663326951390934000,4.88193408203125,0.2615426480770111,0.7628411650657654,-0.012330436147749424
1663326951400891100,4.89189111328125,0.2502055764198303,0.7319152355194092,-0.08069431036710739
1663326951410848000,4.901847900390625,0.252472460269928,0.6485558748245239,-0.14526478946208954
1663326951420804000,4.91180419921875,0.2731473743915558,0.5272142887115479,-0.19428426027297974
1663326951430761000,4.921760986328125,0.30844172835350037,0.4317340850830078,-0.2198127806186676
1663326951440717800,4.9317177734375,0.34480026364326477,0.4080226421356201,-0.22053982317447662
1663326951450674200,4.941674072265625,0.35040462017059326,0.4168744683265686,-0.2116970717906952
1663326951460630800,4.951630859375,0.3083762228488922,0.41423073410987854,-0.22401738166809082
1663326951470588000,4.961587890625,0.24179638922214508,0.4024774134159088,-0.26476746797561646
1663326951480545000,4.971544921875,0.15640611946582794,0.39292970299720764,-0.3264803886413574
1663326951490500900,4.9815009765625,0.07406703382730484,0.388683557510376,-0.37401941418647766
1663326951500458000,4.9914580078125,0.009437177330255508,0.37428492307662964,-0.3982253968715668
1663326951510415000,5.0014150390625,-0.019659455865621567,0.34464845061302185,-0.3760868012905121
1663326951520372000,5.0113720703125,-0.02593040093779564,0.30037233233451843,-0.30201950669288635
1663326951530328000,5.021328125,-0.007464840542525053,0.22524216771125793,-0.2250717282295227
1663326951540285000,5.031284912109375,0.007890413515269756,0.13155455887317657,-0.21181131899356842
1663326951550242000,5.041241943359375,0.009242500178515911,0.04133731871843338,-0.257583349943161
1663326951560198100,5.0511982421875,0.0022514364682137966,-0.012449212372303009,-0.3507375121116638
1663326951570155000,5.061155029296875,-0.01677791401743889,-0.014669490046799183,-0.45680269598960876
1663326951580112000,5.07111181640625,-0.02526487596333027,-0.014532070606946945,-0.5290382504463196
1663326951590069000,5.081069091796875,-0.013798636384308338,-0.022354841232299805,-0.5488364696502686
1663326951600024800,5.09102490234375,-0.0015773903578519821,-0.04020201414823532,-0.4916808009147644
1663326951609982000,5.10098193359375,-0.009063536301255226,-0.0644192025065422,-0.38472291827201843
1663326951619939000,5.11093896484375,-0.02484249882400036,-0.08479664474725723,-0.2615940570831299
1663326951629895000,5.12089501953125,-0.04307529702782631,-0.11226955056190491,-0.1533282995223999
1663326951639852000,5.13085205078125,-0.038772694766521454,-0.13193939626216888,-0.07097350805997849
1663326951649809000,5.140808837890625,-0.026148246601223946,-0.12534967064857483,-0.025198031216859818
1663326951659766000,5.15076611328125,0.004578240215778351,-0.08596417307853699,-0.019332684576511383
1663326951669722000,5.16072216796875,0.04688814654946327,-0.013136574998497963,-0.037694647908210754
1663326951679679000,5.170678955078125,0.08566776663064957,0.07542231678962708,-0.06268042325973511
1663326951689636000,5.180635986328125,0.12290222197771072,0.1254948079586029,-0.0917658731341362
1663326951699592700,5.1905927734375,0.15556110441684723,0.12781068682670593,-0.12238423526287079
1663326951709548800,5.200548828125,0.17180956900119781,0.06818597763776779,-0.1420772522687912
1663326951719505700,5.210505615234375,0.17850182950496674,-0.004995024763047695,-0.14622671902179718
1663326951729462500,5.220462646484375,0.15745674073696136,-0.03285861387848854,-0.11640996485948563
1663326951739418600,5.230418701171875,0.10185205936431885,-0.030288662761449814,-0.07164276391267776
1663326951749375700,5.240375732421875,0.014446583576500416,-0.019884491339325905,-0.02406245842576027
1663326951759332600,5.25033251953125,-0.06230172514915466,0.0027108315844088793,0.029349632561206818
1663326951769289700,5.260289794921875,-0.12083640694618225,0.03792021796107292,0.07888389378786087
1663326951779245600,5.27024560546875,-0.16469255089759827,0.08430475741624832,0.1091746911406517
1663326951789202700,5.28020263671875,-0.1781122088432312,0.13843031227588654,0.09856945276260376
1663326951799159800,5.290159912109375,-0.1669226735830307,0.1665724664926529,0.07124914228916168
1663326951809117000,5.300116943359375,-0.13566488027572632,0.17372918128967285,0.023914920166134834
1663326951819072800,5.31007275390625,-0.11917592585086823,0.1743267923593521,-0.027813522145152092
1663326951829030000,5.32002978515625,-0.11723128706216812,0.18102650344371796,-0.07478742301464081
1663326951838986800,5.32998681640625,-0.1409299522638321,0.16011962294578552,-0.09144842624664307
1663326951848942800,5.33994287109375,-0.16122376918792725,0.12092509120702744,-0.09130407869815826
1663326951858899700,5.349899658203125,-0.1746751368045807,0.07036790251731873,-0.07793314754962921
1663326951868856600,5.359856689453125,-0.18774087727069855,0.04705991968512535,-0.07524734735488892
1663326951878813700,5.369813720703125,-0.201007679104805,0.04644499719142914,-0.09400266408920288
1663326951888769500,5.37976953125,-0.1975301206111908,0.04374082386493683,-0.1131095141172409
1663326951898726700,5.3897265625,-0.17574119567871094,0.02203339710831642,-0.12517708539962769
1663326951908683800,5.399683837890625,-0.14050385355949402,-0.008977249264717102,-0.1496179848909378
1663326951918640600,5.409640625,-0.10697998106479645,-0.0213572196662426,-0.1830981820821762
1663326951928596700,5.4195966796875,-0.0813228189945221,-0.0015068164793774486,-0.20529350638389587
1663326951938553900,5.429553955078125,-0.07043635100126266,0.03130758926272392,-0.21638822555541992
1663326951948510700,5.4395107421875,-0.06664560735225677,0.05042802169919014,-0.24334554374217987
1663326951958466800,5.449466796875,-0.07016657292842865,0.010184460319578648,-0.2774134874343872
1663326951968423700,5.459423583984375,-0.055747151374816895,-0.05615035444498062,-0.2992173433303833
1663326951978380800,5.469380859375,-0.03170173615217209,-0.12535499036312103,-0.2905958890914917
1663326951988337700,5.479337646484375,-0.00765791954472661,-0.15415255725383759,-0.24818849563598633
1663326951998293800,5.489293701171875,0.009794574230909348,-0.13229838013648987,-0.1994241625070572
1663326952008250600,5.499250732421875,0.01104679238051176,-0.09541493654251099,-0.15895316004753113
1663326952018207700,5.509207763671875,0.02990490198135376,-0.059540290385484695,-0.1233818531036377
1663326952028164600,5.51916455078125,0.06826294213533401,-0.026761040091514587,-0.09930475056171417
1663326952038120700,5.52912060546875,0.12089446187019348,-0.008135158568620682,-0.10122621804475784
1663326952048077800,5.539077880859375,0.19395215809345245,0.0031273500062525272,-0.13707450032234192
1663326952058034700,5.54903466796875,0.2781171202659607,0.0012245214311406016,-0.17321759462356567
1663326952067990800,5.55899072265625,0.3407421410083771,0.00917432364076376,-0.1897081434726715
1663326952077947600,5.56894775390625,0.36339470744132996,0.04330512881278992,-0.18687720596790314
1663326952087904800,5.57890478515625,0.33874422311782837,0.09361756592988968,-0.16462942957878113
1663326952097862000,5.58886181640625,0.28260481357574463,0.12245187908411026,-0.12665541470050812
1663326952107817700,5.598817626953125,0.23820272088050842,0.11792849749326706,-0.0926942527294159
1663326952117774800,5.60877490234375,0.22290870547294617,0.05065678432583809,-0.06374195963144302
1663326952127731700,5.618731689453125,0.22642461955547333,-0.024294154718518257,-0.04524071514606476
1663326952137687800,5.628687744140625,0.2361571341753006,-0.07664550840854645,-0.04008882865309715
1663326952147644700,5.638644775390625,0.24568620324134827,-0.09079807996749878,-0.0661127045750618
1663326952157601800,5.648601806640625,0.2539028525352478,-0.06760673969984055,-0.1201796680688858
1663326952167558700,5.65855859375,0.2638465464115143,-0.02347097173333168,-0.16284164786338806
1663326952177514800,5.6685146484375,0.25727227330207825,0.015412245877087116,-0.18542179465293884
1663326952187471600,5.6784716796875,0.24215005338191986,0.022828616201877594,-0.19125410914421082
1663326952197428700,5.6884287109375,0.21963249146938324,-0.007843275554478168,-0.18506652116775513
1663326952207385900,5.6983857421875,0.19058220088481903,-0.07273119688034058,-0.16891658306121826
1663326952217341700,5.708341796875,0.1373133808374405,-0.14226126670837402,-0.14782194793224335
1663326952227298800,5.718298828125,0.09732469171285629,-0.19479505717754364,-0.13129223883152008
1663326952237256000,5.728255859375,0.07384679466485977,-0.2399420291185379,-0.12441835552453995
1663326952247212500,5.738212646484375,0.03329164534807205,-0.2692871391773224,-0.13379934430122375
1663326952257169000,5.7481689453125,0.005888781975954771,-0.2806686758995056,-0.16069753468036652
1663326952267125500,5.75812548828125,-0.010215885937213898,-0.26626551151275635,-0.17838652431964874
1663326952277082600,5.76808251953125,-0.004062918480485678,-0.24947747588157654,-0.1725640445947647
1663326952287038700,5.778038818359375,0.034149982035160065,-0.25711673498153687,-0.14717400074005127
1663326952296995600,5.78799560546875,0.11809627711772919,-0.2448398470878601,-0.10795922577381134
1663326952306952700,5.79795263671875,0.23329104483127594,-0.195365771651268,-0.06750447303056717
1663326952316909800,5.807909912109375,0.355539470911026,-0.10194554179906845,-0.02008902281522751
1663326952326865700,5.81786572265625,0.48155438899993896,0.045946452766656876,0.029471339657902718
1663326952336822800,5.82782275390625,0.6011121869087219,0.23257093131542206,0.08293669670820236
1663326952346780000,5.83777978515625,0.7425106167793274,0.389760285615921,0.1290309578180313
1663326952356736800,5.84773681640625,0.9198251962661743,0.47699078917503357,0.18953850865364075
1663326952366692900,5.85769287109375,1.1049050092697144,0.46649155020713806,0.27942976355552673
1663326952376649700,5.867649658203125,1.2678524255752563,0.43200787901878357,0.3600676357746124
1663326952386606600,5.877606689453125,1.4411413669586182,0.46081289649009705,0.35014230012893677
1663326952396563700,5.887563720703125,1.646380066871643,0.5400834679603577,0.2412499040365219
1663326952406519600,5.89751953125,1.868618369102478,0.6004632115364075,0.08911256492137909
1663326952416476700,5.9074765625,2.1176838874816895,0.6337705254554749,-0.0304535124450922
1663326952426433800,5.917433837890625,2.355020523071289,0.6772881746292114,-0.030950192362070084
1663326952436389600,5.9273896484375,2.5377187728881836,0.7178776860237122,0.07728946208953857
1663326952446346800,5.9373466796875,2.631500720977783,0.6726886630058289,0.2430693805217743
1663326952456303900,5.947303955078125,2.689539909362793,0.5089266300201416,0.4120378792285919
1663326952466260700,5.9572607421875,2.7743184566497803,0.31974470615386963,0.5420520901679993
1663326952476216800,5.967216796875,2.9516665935516357,0.2712187170982361,0.5816059112548828
1663326952486173700,5.977173583984375,3.2883872985839844,0.41803133487701416,0.48917049169540405
1663326952496130800,5.987130859375,3.7486226558685303,0.5763083100318909,0.25968030095100403
1663326952506087700,5.997087646484375,4.34812593460083,0.7894117832183838,0.006280532572418451
1663326952516043800,6.007043701171875,4.960481643676758,0.9398465752601624,-0.19975332915782928
1663326952526000600,6.017000732421875,5.442038536071777,0.9694353938102722,-0.30428346991539
1663326952535957800,6.026957763671875,5.70082950592041,0.8522493839263916,-0.22647522389888763
1663326952545913600,6.03691357421875,5.790377616882324,0.6032794713973999,0.04080016165971756
1663326952555870700,6.04687060546875,5.811136722564697,0.4389057159423828,0.5381617546081543
1663326952565827600,6.05682763671875,5.835213661193848,0.5223537683486938,1.1589491367340088
1663326952575784700,6.06678466796875,5.909149646759033,1.0200543403625488,1.7041548490524292
1663326952585740800,6.07674072265625,6.089536190032959,1.7721751928329468,2.0338504314422607
1663326952595697700,6.08669775390625,6.388606548309326,2.4509117603302,2.131720542907715
1663326952605654800,6.09665478515625,6.744103908538818,3.0971055030822754,1.9209386110305786
1663326952615612000,6.10661181640625,7.005162715911865,3.330101728439331,1.2881710529327393
1663326952625567700,6.116567626953125,7.1178059577941895,2.8226559162139893,0.4421460032463074
1663326952635524900,6.12652490234375,7.064976215362549,1.899681806564331,-0.5242754817008972
1663326952645481700,6.136481689453125,6.7360100746154785,1.255341649055481,-1.4521881341934204
1663326952655437800,6.146437744140625,6.1637468338012695,1.017061471939087,-1.9122377634048462
1663326952665394700,6.156394775390625,5.529521465301514,0.9240148663520813,-1.6821537017822266
1663326952675351600,6.1663515625,4.977311134338379,0.7635125517845154,-0.9778285622596741
1663326952685308700,6.17630859375,4.502718448638916,0.5746121406555176,-0.10747133195400238
1663326952695264800,6.1862646484375,4.02888822555542,0.28890371322631836,0.5913565158843994
1663326952705221600,6.1962216796875,3.566588878631592,-0.11931148171424866,1.0036410093307495
1663326952715178800,6.2061787109375,3.2635035514831543,-0.4572453200817108,1.0915660858154297
1663326952725135600,6.216135498046875,3.0952465534210205,-0.6244769096374512,0.7564584016799927
1663326952735091700,6.226091796875,2.8868448734283447,-0.21165844798088074,0.15310406684875488
1663326952745048600,6.236048583984375,2.442382335662842,0.6219578385353088,-0.502403199672699
1663326952755005700,6.246005615234375,1.8378483057022095,1.859108567237854,-0.8867311477661133
1663326952764962600,6.255962646484375,1.2372524738311768,3.1446163654327393,-0.9136269688606262
1663326952774918700,6.265918701171875,0.7872586250305176,4.072203636169434,-0.710781455039978
1663326952784875500,6.27587548828125,0.5660991072654724,4.184843063354492,-0.37630945444107056
1663326952794832600,6.28583251953125,0.5831883549690247,3.176964282989502,0.10504093021154404
1663326952804789500,6.29578955078125,0.8762609362602234,1.584839940071106,0.650265097618103
1663326952814745600,6.30574560546875,1.2763543128967285,0.15892626345157623,1.046416997909546
1663326952824702700,6.31570263671875,1.5171724557876587,-0.8168703317642212,1.2202638387680054
1663326952834659600,6.32565966796875,1.5274951457977295,-1.3520591259002686,1.170448660850525
1663326952844615700,6.33561572265625,1.3825994729995728,-1.375040888786316,0.9857544302940369
1663326952854572500,6.345572509765625,1.1083887815475464,-1.0199419260025024,0.6952994465827942
1663326952864529700,6.35552978515625,0.7587452530860901,-0.5140217542648315,0.3482690155506134
1663326952874486800,6.36548681640625,0.45269450545310974,-0.022222481667995453,0.02274552546441555
1663326952884442600,6.375442626953125,0.24348881840705872,0.33056512475013733,-0.2397601306438446
1663326952894399700,6.385399658203125,0.09116346389055252,0.6010648012161255,-0.3872166872024536
1663326952904356600,6.395356689453125,0.042453449219465256,0.7581439018249512,-0.4038904905319214
1663326952914313500,6.4053134765625,0.0671827644109726,0.7218601703643799,-0.3523215651512146
1663326952924269600,6.41526953125,0.12374111264944077,0.5091314315795898,-0.30326932668685913
1663326952934226700,6.425226806640625,0.14935220777988434,0.2218136191368103,-0.32003048062324524
1663326952944183600,6.43518359375,0.13188879191875458,0.028244154527783394,-0.39328470826148987
1663326952954140700,6.445140625,0.11511193960905075,-0.1141156554222107,-0.4696527123451233
1663326952964096500,6.455096435546875,0.10434717684984207,-0.20752176642417908,-0.5158481597900391
1663326952974053600,6.4650537109375,0.08230845630168915,-0.150950625538826,-0.5138720870018005
1663326952984010800,6.4750107421875,0.02702256292104721,-0.012148807756602764,-0.45150965452194214
1663326952993966600,6.484966552734375,-0.06761659681797028,0.2111029177904129,-0.3707048296928406
1663326953003923700,6.494923828125,-0.14958202838897705,0.4166720509529114,-0.2577436566352844
1663326953013880800,6.504880859375,-0.191035196185112,0.489289790391922,-0.13962580263614655
1663326953023837400,6.51483740234375,-0.16584914922714233,0.44065436720848083,-0.06389535963535309
1663326953033793800,6.524793701171875,-0.10220040380954742,0.28127267956733704,-0.026970630511641502
1663326953043750400,6.53475048828125,-0.05547204613685608,0.11759613454341888,-0.050813380628824234
1663326953053707500,6.54470751953125,-0.03874846175312996,0.048473794013261795,-0.1367860734462738
1663326953063664600,6.55466455078125,-0.035280492156744,-0.005554288625717163,-0.2054801881313324
1663326953073620500,6.564620361328125,-0.04676883667707443,-0.06124578043818474,-0.24219532310962677
1663326953083577600,6.57457763671875,-0.06667809933423996,-0.056165002286434174,-0.2542743682861328
1663326953093534700,6.58453466796875,-0.0742955356836319,0.00839907769113779,-0.23247532546520233
1663326953103491600,6.59449169921875,-0.07240868359804153,0.08123812824487686,-0.17524798214435577
1663326953113447700,6.60444775390625,-0.07632513344287872,0.11007057875394821,-0.09368307888507843
1663326953123404800,6.61440478515625,-0.0770774707198143,0.09100554138422012,-0.02155269682407379
1663326953133361700,6.624361572265625,-0.07857923209667206,0.031241009011864662,0.008012652397155762
1663326953143318500,6.634318603515625,-0.08567468822002411,-0.04182414710521698,-0.005015797447413206
1663326953153274600,6.644274658203125,-0.09494142234325409,-0.12570279836654663,-0.04995451122522354
1663326953163231500,6.6542314453125,-0.08171962946653366,-0.18698054552078247,-0.1012166291475296
1663326953173188600,6.664188720703125,-0.07115300744771957,-0.21786680817604065,-0.13616688549518585
1663326953183145500,6.6741455078125,-0.07788893580436707,-0.18195542693138123,-0.13673707842826843
1663326953193101600,6.6841015625,-0.10295461118221283,-0.0939541906118393,-0.11898870766162872
1663326953203058700,6.69405859375,-0.13628406822681427,0.0012679309584200382,-0.09217626601457596
1663326953213015600,6.704015625,-0.16150979697704315,0.06801340728998184,-0.07688172906637192
1663326953222972700,6.71397265625,-0.18090373277664185,0.10755841434001923,-0.07693872600793839
1663326953232928800,6.7239287109375,-0.1861666738986969,0.10790063440799713,-0.0941440761089325
1663326953242885600,6.7338857421875,-0.1781574934720993,0.09973938018083572,-0.11713673919439316
1663326953252842800,6.7438427734375,-0.19650399684906006,0.08325494080781937,-0.11640170961618423
1663326953262798600,6.753798583984375,-0.2328162044286728,0.07023341953754425,-0.07101638615131378
1663326953272755700,6.763755615234375,-0.2896254360675812,0.08392978459596634,0.0019499665359035134
1663326953282712600,6.773712646484375,-0.33896422386169434,0.12189900875091553,0.10109652578830719
1663326953292669400,6.78366943359375,-0.3634767532348633,0.15201829373836517,0.1983165442943573
1663326953302625500,6.79362548828125,-0.36048200726509094,0.14667066931724548,0.2830263674259186
1663326953312582700,6.803582763671875,-0.34597310423851013,0.07733260840177536,0.32903409004211426
1663326953322539500,6.81353955078125,-0.32147523760795593,-0.0271914079785347,0.33317822217941284
1663326953332496600,6.82349658203125,-0.28783392906188965,-0.15324440598487854,0.30310821533203125
1663326953342452500,6.833452392578125,-0.26630812883377075,-0.2688453197479248,0.2735188901424408
1663326953352409600,6.84340966796875,-0.28142502903938293,-0.35605931282043457,0.2592981457710266
1663326953362366700,6.85336669921875,-0.3650970160961151,-0.3811843693256378,0.25160878896713257
1663326953372323800,6.86332373046875,-0.4789245128631592,-0.3462927043437958,0.2730850577354431
1663326953382279700,6.87327978515625,-0.5686469674110413,-0.30039259791374207,0.2974042594432831
1663326953392236800,6.88323681640625,-0.6125643253326416,-0.281423956155777,0.32899680733680725
1663326953402193700,6.893193603515625,-0.6046214699745178,-0.3086819350719452,0.3525252938270569
1663326953412150500,6.903150634765625,-0.5572576522827148,-0.40747857093811035,0.36592045426368713
1663326953422106600,6.913106689453125,-0.5109673738479614,-0.5082043409347534,0.3515907824039459
1663326953432063500,6.9230634765625,-0.5164532661437988,-0.5640324950218201,0.3165888786315918
1663326953442020600,6.9330205078125,-0.5792769193649292,-0.5385463237762451,0.2712402939796448
1663326953451977700,6.942977783203125,-0.6670613884925842,-0.45470091700553894,0.21700900793075562
1663326953461933600,6.95293359375,-0.7414562702178955,-0.3562782108783722,0.17133526504039764
1663326953471890700,6.962890625,-0.7461745738983154,-0.2985757887363434,0.13704174757003784
1663326953481847600,6.97284765625,-0.6847676634788513,-0.30804330110549927,0.1350579559803009
1663326953491804700,6.9828046875,-0.593329668045044,-0.3922162353992462,0.17442479729652405
1663326953501760800,6.9927607421875,-0.5075388550758362,-0.5270110964775085,0.2187027782201767
1663326953511717600,7.002717529296875,-0.5174306035041809,-0.7011844515800476,0.17485010623931885
1663326953521674800,7.0126748046875,-0.5732845664024353,-0.7883686423301697,0.06551908701658249
1663326953531631600,7.022631591796875,-0.61933833360672,-0.7950268387794495,-0.05697460100054741
1663326953541587700,7.032587646484375,-0.6712774634361267,-0.7702881693840027,-0.16955867409706116
1663326953551544600,7.042544677734375,-0.7467572689056396,-0.7480414509773254,-0.26932254433631897
1663326953561501700,7.052501708984375,-0.7896325588226318,-0.7235172390937805,-0.3139909505844116
1663326953571458600,7.06245849609375,-0.7815778255462646,-0.7401188015937805,-0.2714003622531891
1663326953581414700,7.07241455078125,-0.7468225359916687,-0.7621428966522217,-0.1489442139863968
1663326953591371500,7.08237158203125,-0.7317445278167725,-0.7607088088989258,-0.0008498146780766547
1663326953601328600,7.09232861328125,-0.7657451033592224,-0.7444206476211548,0.11157312989234924
1663326953611285800,7.10228564453125,-0.8421741127967834,-0.7023994326591492,0.14916764199733734
1663326953621241600,7.11224169921875,-0.9707962274551392,-0.6566519141197205,0.10866016894578934
1663326953631198700,7.12219873046875,-1.1532901525497437,-0.6417911648750305,0.050220560282468796
1663326953641155800,7.13215576171875,-1.3051021099090576,-0.6626242995262146,-0.0023212111555039883
1663326953651112400,7.142112548828125,-1.3744022846221924,-0.7078996300697327,0.010915231890976429
1663326953661068800,7.15206884765625,-1.3749852180480957,-0.7667635083198547,0.09953004866838455
1663326953671025700,7.162025634765625,-1.344844937324524,-0.8000530004501343,0.24210797250270844
1663326953680982500,7.171982421875,-1.3290619850158691,-0.813367486000061,0.36895325779914856
1663326953690939600,7.181939697265625,-1.360995888710022,-0.7765950560569763,0.42047053575515747
1663326953700895500,7.1918955078125,-1.4421746730804443,-0.7034995555877686,0.3764024078845978
1663326953710852400,7.201852294921875,-1.533959150314331,-0.646457314491272,0.23968583345413208
1663326953720809500,7.2118095703125,-1.6284481287002563,-0.6268321871757507,0.07883302867412567
1663326953730766300,7.221766357421875,-1.718648910522461,-0.6929212212562561,-0.05974455550312996
1663326953740722400,7.231722412109375,-1.7803112268447876,-0.8277661204338074,-0.1538683921098709
1663326953750679600,7.241679443359375,-1.8600646257400513,-0.9507381319999695,-0.20615530014038086
1663326953760636400,7.251636474609375,-1.96871018409729,-1.0028740167617798,-0.23345935344696045
1663326953770593300,7.26159326171875,-2.109761953353882,-0.988214373588562,-0.24752190709114075
1663326953780549400,7.27154931640625,-2.2368381023406982,-0.9525378942489624,-0.24723829329013824
1663326953790506200,7.28150634765625,-2.3273391723632812,-0.9527754187583923,-0.2680511474609375
1663326953800463400,7.29146337890625,-2.3682942390441895,-1.004072666168213,-0.35301104187965393
1663326953810420200,7.301420166015625,-2.33878755569458,-1.0071043968200684,-0.45545753836631775
1663326953820376300,7.311376220703125,-2.2911691665649414,-0.9588314890861511,-0.5144875645637512
1663326953830333400,7.32133349609375,-2.29821515083313,-0.868150532245636,-0.5557103753089905
1663326953840290300,7.331290283203125,-2.4222640991210938,-0.754416823387146,-0.6175574660301208
1663326953850246400,7.341246337890625,-2.6536974906921387,-0.7427100539207458,-0.6650011539459229
1663326953860203500,7.35120361328125,-2.91831374168396,-0.8520858287811279,-0.6503534913063049
1663326953870160400,7.361160400390625,-3.146430253982544,-1.067565679550171,-0.5979150533676147
1663326953880117500,7.371117431640625,-3.2846908569335938,-1.324812650680542,-0.5563066601753235
1663326953890073300,7.3810732421875,-3.29598069190979,-1.5117348432540894,-0.5340897440910339
1663326953900030500,7.391030517578125,-3.183025598526001,-1.5787874460220337,-0.5343656539916992
1663326953909987300,7.4009873046875,-2.981687068939209,-1.5603338479995728,-0.5725290179252625
1663326953919944200,7.410944091796875,-2.7255895137786865,-1.480066180229187,-0.6456109881401062
1663326953929900300,7.420900390625,-2.446901321411133,-1.33139967918396,-0.7315727472305298
1663326953939857400,7.430857421875,-2.21034574508667,-1.1790416240692139,-0.7241896390914917
1663326953949814300,7.440814208984375,-2.064408779144287,-1.0333291292190552,-0.579434871673584
1663326953959771400,7.450771484375,-2.0714237689971924,-0.7880123257637024,-0.37845277786254883
1663326953969727200,7.460727294921875,-2.2412006855010986,-0.4591662585735321,-0.25106552243232727
1663326953979684400,7.470684326171875,-2.4751882553100586,-0.24270585179328918,-0.22635644674301147
1663326953989641500,7.480641357421875,-2.597989082336426,-0.2556706666946411,-0.2712024748325348
1663326953999598600,7.4905986328125,-2.565000057220459,-0.4957285225391388,-0.3534821569919586
1663326954009554400,7.500554443359375,-2.4086787700653076,-0.8283536434173584,-0.4560932219028473
1663326954019511600,7.510511474609375,-2.184250593185425,-1.1250507831573486,-0.5636109113693237
1663326954029468400,7.520468505859375,-1.9500818252563477,-1.3776593208312988,-0.6765257120132446
1663326954039425300,7.53042529296875,-1.762580156326294,-1.4113675355911255,-0.7847979068756104
1663326954049381400,7.54038134765625,-1.7198307514190674,-1.1547235250473022,-0.816892147064209
1663326954059338200,7.550338134765625,-1.8040634393692017,-0.7152105569839478,-0.7664372324943542
1663326954069295400,7.56029541015625,-1.9544806480407715,-0.33099257946014404,-0.6425302028656006
1663326954079252500,7.57025244140625,-2.0798277854919434,-0.14458860456943512,-0.46668994426727295
1663326954089208300,7.580208251953125,-2.1034255027770996,-0.15810787677764893,-0.2613362669944763
1663326954099165400,7.59016552734375,-2.01759934425354,-0.2759852409362793,-0.0965648889541626
1663326954109122300,7.600122314453125,-1.8650202751159668,-0.426935613155365,0.007807855494320393
1663326954119079400,7.610079345703125,-1.7016164064407349,-0.5603514313697815,0.03327113762497902
1663326954129035500,7.620035400390625,-1.5493264198303223,-0.5999335050582886,-0.00708800321444869
1663326954138992400,7.629992431640625,-1.4221959114074707,-0.507702112197876,-0.03744271397590637
1663326954148949500,7.639949462890625,-1.3167424201965332,-0.32074418663978577,0.0012093414552509785
1663326954158906400,7.64990625,-1.203790307044983,-0.11997274309396744,0.08154971897602081
1663326954168862500,7.659862548828125,-1.0777599811553955,0.05765024572610855,0.1769353598356247
1663326954178819300,7.6698193359375,-0.9350845813751221,0.2096453756093979,0.2784380316734314
1663326954188776400,7.6797763671875,-0.7832865118980408,0.3161177635192871,0.3680235743522644
1663326954198733300,7.6897333984375,-0.6402391195297241,0.37688708305358887,0.4332824647426605
1663326954208689400,7.699689453125,-0.5251388549804688,0.39538806676864624,0.4575635492801666
1663326954218646300,7.709646240234375,-0.44057339429855347,0.40836140513420105,0.42127078771591187
1663326954228603400,7.719603271484375,-0.35821807384490967,0.425027996301651,0.34912949800491333
1663326954238560500,7.729560546875,-0.2652851939201355,0.41825956106185913,0.27614930272102356
1663326954248516400,7.739516357421875,-0.17480190098285675,0.38068076968193054,0.20957106351852417
1663326954258473500,7.749473388671875,-0.09557259827852249,0.3654874265193939,0.14090944826602936
1663326954268430600,7.7594306640625,-0.05035505071282387,0.3731845021247864,0.0738084465265274
1663326954278387200,7.76938720703125,-0.02905402146279812,0.43918827176094055,0.019601663574576378
1663326954288343600,7.779343505859375,-0.04490941762924194,0.5621839761734009,-0.026703516021370888
1663326954298300400,7.789300537109375,-0.05831949785351753,0.6636432409286499,-0.03923794999718666
1663326954308257300,7.79925732421875,-0.07305104285478592,0.7432070374488831,0.008708802983164787
1663326954318214400,7.80921435546875,-0.08603022247552872,0.7744621634483337,0.07507690787315369
1663326954328170200,7.819170166015625,-0.10403238981962204,0.7359189987182617,0.12793293595314026
1663326954338127400,7.82912744140625,-0.12867063283920288,0.6433262228965759,0.15456081926822662
1663326954348084500,7.83908447265625,-0.1252410113811493,0.49564382433891296,0.1476709544658661
1663326954358041300,7.849041259765625,-0.08698363602161407,0.3358653485774994,0.12169447541236877
1663326954367997400,7.85899755859375,-0.005002215504646301,0.20283301174640656,0.08305414021015167
1663326954377954600,7.86895458984375,0.08705180883407593,0.15833771228790283,0.05410797521471977
1663326954387911400,7.878911376953125,0.1725424826145172,0.20868690311908722,0.025948243215680122
1663326954397868300,7.888868408203125,0.24054816365242004,0.3178562521934509,-0.0028272117488086224
1663326954407824400,7.898824462890625,0.29089656472206116,0.46005573868751526,-0.02346963994204998
1663326954417781200,7.90878125,0.33794474601745605,0.5780167579650879,-0.020258933305740356
1663326954427738400,7.91873828125,0.37933239340782166,0.6458359956741333,0.03207031637430191
1663326954437695500,7.928695556640625,0.42698514461517334,0.6752700805664062,0.08689761161804199
1663326954447651300,7.9386513671875,0.5106843113899231,0.6343511343002319,0.13298681378364563
1663326954457608400,7.9486083984375,0.6239586472511292,0.5369167327880859,0.14583151042461395
1663326954467565300,7.9585654296875,0.7317908406257629,0.45884162187576294,0.11280910670757294
1663326954477522400,7.9685224609375,0.8075572848320007,0.430000364780426,0.043716587126255035
1663326954487478500,7.978478515625,0.8363380432128906,0.44629600644111633,-0.03460298478603363
1663326954497435400,7.988435302734375,0.8425783514976501,0.47498250007629395,-0.1070185974240303
1663326954507392500,7.998392578125,0.8437669277191162,0.4873286485671997,-0.15579332411289215
1663326954517349400,8.008349365234375,0.8384363651275635,0.4554327726364136,-0.17904432117938995
1663326954527305500,8.018305419921875,0.8288963437080383,0.37575018405914307,-0.18555255234241486
1663326954537262300,8.028262451171875,0.8360517621040344,0.3032115399837494,-0.18325769901275635
1663326954547219200,8.03821923828125,0.8359614610671997,0.2418065071105957,-0.16738712787628174
1663326954557176300,8.04817626953125,0.8312497735023499,0.18666788935661316,-0.14364159107208252
1663326954567132400,8.05813232421875,0.8376054167747498,0.14790451526641846,-0.1070694625377655
1663326954577089300,8.06808935546875,0.8488306403160095,0.11514443159103394,-0.05203283950686455
1663326954587046400,8.07804638671875,0.8633888363838196,0.11850534379482269,-0.011345865204930305
1663326954597003500,8.08800341796875,0.8553644418716431,0.1673935204744339,0.006372145377099514
1663326954606959400,8.09795947265625,0.8125078082084656,0.23689936101436615,-0.0020780644845217466
1663326954616916500,8.10791650390625,0.760242223739624,0.31824907660484314,-0.02201581932604313
1663326954626873600,8.11787353515625,0.7035035490989685,0.3567538559436798,-0.05384591966867447
1663326954636830200,8.127830322265625,0.6528534293174744,0.34606578946113586,-0.08579427003860474
1663326954646786600,8.13778662109375,0.6239442825317383,0.2749423384666443,-0.10824098438024521
1663326954656743200,8.1477431640625,0.6113699078559875,0.15933425724506378,-0.10703617334365845
1663326954666700300,8.1577001953125,0.5965728759765625,0.045528870075941086,-0.07975954562425613
1663326954676657400,8.167657470703125,0.5755101442337036,-0.037936996668577194,-0.04754434898495674
1663326954686613200,8.17761328125,0.5271437168121338,-0.06042392924427986,-0.0202243123203516
1663326954696570400,8.1875703125,0.4733888506889343,-0.0527028925716877,-0.00043995422311127186
1663326954706528300,8.1975283203125,0.4278472065925598,-0.040702421218156815,0.031103590503335
1663326954716485000,8.207485107421874,0.3721195161342621,-0.061592791229486465,0.052744437009096146
1663326954726441200,8.217441162109376,0.33838045597076416,-0.08600518852472305,0.05205627530813217
1663326954736398300,8.2273984375,0.3193415105342865,-0.11634578555822372,0.04283348470926285
1663326954746355000,8.23735498046875,0.3072124123573303,-0.13756771385669708,0.03597557917237282
1663326954756312000,8.24731201171875,0.2938726246356964,-0.12535418570041656,0.03602324798703194
1663326954766268200,8.25726806640625,0.27075427770614624,-0.09013868123292923,0.03387114778161049
1663326954776225000,8.26722509765625,0.24264752864837646,-0.057103231549263,0.032647691667079926
1663326954786182100,8.27718212890625,0.2197542041540146,-0.038730084896087646,0.03187297657132149
1663326954796139300,8.28713916015625,0.21228162944316864,-0.03328472003340721,0.045826077461242676
1663326954806095000,8.29709521484375,0.21079106628894806,-0.02504010498523712,0.05732720345258713
1663326954816052200,8.30705224609375,0.190848246216774,0.00959643442183733,0.0700126439332962
1663326954826009000,8.317009033203124,0.15694594383239746,0.048168595880270004,0.06454890221357346
1663326954835966200,8.32696630859375,0.1081554964184761,0.0613163523375988,0.04703222215175629
1663326954845922300,8.33692236328125,0.055331699550151825,0.03128654882311821,0.00737349409610033
1663326954855879200,8.346879150390626,-0.004746552091091871,-0.03498381748795509,-0.04057459160685539
1663326954865836000,8.3568359375,-0.0675598680973053,-0.11242907494306564,-0.10181264579296112
1663326954875793200,8.366793212890625,-0.11357476562261581,-0.16044214367866516,-0.15459543466567993
1663326954885749000,8.3767490234375,-0.14964169263839722,-0.18223105370998383,-0.18122811615467072
1663326954895706000,8.3867060546875,-0.15848737955093384,-0.1910804808139801,-0.1839250922203064
1663326954905663200,8.396663330078125,-0.1523224264383316,-0.18820185959339142,-0.16229410469532013
1663326954915620000,8.4066201171875,-0.14926432073116302,-0.14051343500614166,-0.12759603559970856
1663326954925576200,8.416576171875,-0.15408650040626526,-0.07608731091022491,-0.11545974761247635
1663326954935533000,8.426532958984374,-0.1599678248167038,-0.03680328652262688,-0.11644618213176727
1663326954945490200,8.436490234375,-0.15948286652565002,-0.011063037440180779,-0.12609535455703735
1663326954955447300,8.446447265625,-0.14307166635990143,-0.005997438915073872,-0.13807158172130585
1663326954965403100,8.456403076171876,-0.09944003820419312,-0.005805691238492727,-0.12864932417869568
1663326954975360300,8.4663603515625,-0.04703488573431969,-0.0038578552193939686,-0.08374762535095215
1663326954985317000,8.476317138671876,-0.0019715381786227226,0.04471394047141075,-0.02472318895161152
1663326954995274000,8.48627392578125,0.03407381474971771,0.10735974460840225,0.039088014513254166
1663326955005230000,8.49622998046875,0.0862150490283966,0.15894490480422974,0.07499754428863525
1663326955015187000,8.50618701171875,0.1504155993461609,0.1648150533437729,0.07673659175634384
1663326955025144000,8.51614404296875,0.2143184244632721,0.1251312792301178,0.0639645978808403
1663326955035101200,8.52610107421875,0.29207900166511536,0.09200102835893631,0.018075939267873764
1663326955045057000,8.53605712890625,0.35927852988243103,0.09662693738937378,-0.023355655372142792
1663326955055014100,8.54601416015625,0.4042545258998871,0.1602242887020111,-0.05730403587222099
1663326955064971300,8.55597119140625,0.43043845891952515,0.23495951294898987,-0.08369676023721695
1663326955074928000,8.56592822265625,0.48475363850593567,0.27596473693847656,-0.10334476083517075
1663326955084884200,8.57588427734375,0.5562528371810913,0.2585149109363556,-0.13853977620601654
1663326955094841300,8.58584130859375,0.6228742003440857,0.2400221824645996,-0.192696213722229
1663326955104798000,8.5957978515625,0.6669687032699585,0.22052757441997528,-0.2577247619628906
1663326955114755000,8.605755126953126,0.6785041689872742,0.20854096114635468,-0.31840115785598755
1663326955124711000,8.6157109375,0.6495795845985413,0.2122289091348648,-0.350721538066864
1663326955134668000,8.62566796875,0.6040065288543701,0.20428389310836792,-0.3427182137966156
1663326955144625200,8.635625244140625,0.5475163459777832,0.18907271325588226,-0.2936883568763733
1663326955154582000,8.64558203125,0.4958350658416748,0.145271435379982,-0.21057960391044617
1663326955164538000,8.6555380859375,0.4571342468261719,0.08811627328395844,-0.09355418384075165
1663326955174495200,8.6654951171875,0.44009721279144287,0.03219202533364296,0.025831863284111023
1663326955184452000,8.6754521484375,0.4430040717124939,0.008160191588103771,0.1068233847618103
1663326955194409200,8.6854091796875,0.4373991787433624,0.040283508598804474,0.1375085860490799
1663326955204365300,8.695365234375,0.43411415815353394,0.09409800171852112,0.1033514216542244
1663326955214322200,8.705322265625,0.44107991456985474,0.1443672925233841,0.05420438200235367
1663326955224279000,8.715279052734376,0.4428389370441437,0.19307385385036469,0.01690601371228695
1663326955234236200,8.725236083984376,0.4246612787246704,0.2503954768180847,0.013944577425718307
1663326955244192000,8.73519189453125,0.38416630029678345,0.30075663328170776,0.027408454567193985
1663326955254149000,8.745149169921875,0.34256505966186523,0.3136804401874542,0.0439288429915905
1663326955264106000,8.75510595703125,0.3086095154285431,0.28046414256095886,0.049673281610012054
1663326955274063000,8.76506298828125,0.28334301710128784,0.21628063917160034,0.03033047541975975
1663326955284019200,8.775019287109375,0.2716600000858307,0.14627571403980255,-0.012618856504559517
1663326955293976000,8.78497607421875,0.2670218348503113,0.09079168736934662,-0.06416647136211395
1663326955303933200,8.79493310546875,0.26607856154441833,0.07988045364618301,-0.11427917331457138
1663326955313890300,8.804890380859375,0.2605285346508026,0.10029198229312897,-0.16335830092430115
1663326955323847200,8.81484716796875,0.2435455471277237,0.15881095826625824,-0.20448656380176544
1663326955333803300,8.82480322265625,0.2155485302209854,0.22213692963123322,-0.22424961626529694
1663326955343760100,8.834760009765626,0.19123654067516327,0.26902854442596436,-0.2337014377117157
1663326955353717000,8.844717041015626,0.15142813324928284,0.2884184718132019,-0.2486143410205841
1663326955363674000,8.854674072265626,0.10790462791919708,0.2559036910533905,-0.2747679054737091
1663326955373630000,8.8646298828125,0.06078904867172241,0.196245938539505,-0.31171315908432007
1663326955383587000,8.874587158203125,0.011207113973796368,0.12446016818284988,-0.3337681293487549
1663326955393544200,8.884544189453125,-0.03965499997138977,0.06496328860521317,-0.3215665817260742
1663326955403501000,8.8945009765625,-0.07760611176490784,0.015032744966447353,-0.2839318513870239
1663326955413457200,8.90445703125,-0.09791670739650726,-0.02528351917862892,-0.23580187559127808
1663326955423414300,8.914414306640625,-0.12526817619800568,-0.02966069057583809,-0.19659774005413055
1663326955433371100,8.92437109375,-0.16299425065517426,-0.01636991836130619,-0.18909668922424316
1663326955443328300,8.934328369140625,-0.20461252331733704,0.020473582670092583,-0.20167319476604462
1663326955453284000,8.9442841796875,-0.25347328186035156,0.051900748163461685,-0.23488707840442657
1663326955463241200,8.9542412109375,-0.2973129153251648,0.05030817911028862,-0.2915487587451935
1663326955473198000,8.964197998046876,-0.3427877128124237,0.05921858176589012,-0.3414537310600281
1663326955483155200,8.9741552734375,-0.4062194228172302,0.07548011094331741,-0.3794248104095459
1663326955493111000,8.984111083984375,-0.46319615840911865,0.08732318878173828,-0.37929725646972656
1663326955503068200,8.994068115234375,-0.5100216865539551,0.09969224035739899,-0.3161877989768982
1663326955513025000,9.00402490234375,-0.546711802482605,0.11852904409170151,-0.215038001537323
1663326955522982100,9.013982177734375,-0.6069208383560181,0.17142342031002045,-0.13229651749134064
1663326955532938200,9.023938232421875,-0.681194543838501,0.2284981608390808,-0.10581697523593903
1663326955542895000,9.03389501953125,-0.7714099287986755,0.26051467657089233,-0.11067671328783035
1663326955552852200,9.043852294921875,-0.8601040840148926,0.23163776099681854,-0.15226809680461884
1663326955562809300,9.053809326171875,-0.9248764514923096,0.15449103713035583,-0.22733861207962036
1663326955572765200,9.06376513671875,-0.9627902507781982,0.03484852612018585,-0.28935563564300537
1663326955582722300,9.073722412109374,-0.982751190662384,-0.061897989362478256,-0.3225114643573761
1663326955592679000,9.083678955078126,-0.9941343069076538,-0.09277307987213135,-0.32184702157974243
1663326955602636000,9.093635986328126,-1.0117063522338867,-0.04404841735959053,-0.29570674896240234
1663326955612592000,9.103592041015625,-1.0151426792144775,0.06482533365488052,-0.2565004825592041
1663326955622549000,9.113549072265625,-1.0062423944473267,0.19052228331565857,-0.17825575172901154
1663326955632506000,9.123506103515625,-0.9718284606933594,0.3074398338794708,-0.09488443285226822
1663326955642463200,9.133463134765625,-0.914620041847229,0.38446033000946045,-0.014697453007102013
1663326955652419000,9.143419189453125,-0.851916491985321,0.4231898784637451,0.04749774560332298
1663326955662376200,9.153376220703125,-0.8029771447181702,0.4500630497932434,0.07909534871578217
1663326955672333300,9.163333251953125,-0.7837717533111572,0.47421178221702576,0.07398101687431335
1663326955682290200,9.173290283203125,-0.7842865586280823,0.48483407497406006,0.02664892189204693
1663326955692247000,9.1832470703125,-0.8102476000785828,0.4475972056388855,-0.05350051075220108
1663326955702203100,9.193203125,-0.8474801778793335,0.3586028814315796,-0.14361335337162018
1663326955712159500,9.203159423828126,-0.8996232748031616,0.22424562275409698,-0.21025949716567993
1663326955722116400,9.213116455078126,-0.9451694488525391,0.11224691569805145,-0.22838550806045532
1663326955732073200,9.2230732421875,-0.9766373634338379,0.046296391636133194,-0.2016686648130417
1663326955742029300,9.233029296875,-0.9754863381385803,0.019332950934767723,-0.14178456366062164
1663326955751986200,9.242986083984375,-0.9292253851890564,0.012257731519639492,-0.07025685161352158
1663326955761943300,9.252943359375,-0.8507055044174194,0.03561365231871605,-0.01426362432539463
1663326955771900400,9.262900390625,-0.755317747592926,0.08675780147314072,0.013010607101023197
1663326955781856300,9.272856201171875,-0.668874204158783,0.17514865100383759,0.036732181906700134
1663326955791813400,9.2828134765625,-0.6026265025138855,0.2847427725791931,0.05860046297311783
1663326955801770500,9.2927705078125,-0.5733556747436523,0.39470815658569336,0.06786240637302399
1663326955811727400,9.302727294921874,-0.5705844163894653,0.45534753799438477,0.054075486958026886
1663326955821683500,9.312683349609374,-0.5747461318969727,0.4268975257873535,0.03769225254654884
1663326955831640300,9.322640380859376,-0.5684059262275696,0.33798709511756897,0.028982382267713547
1663326955841597400,9.332597412109376,-0.5523241758346558,0.21887455880641937,0.010948254726827145
1663326955851554300,9.34255419921875,-0.5358754396438599,0.10667292028665543,-0.0065045044757425785
1663326955861510400,9.352510498046875,-0.5276563763618469,0.03933781757950783,-0.02328801155090332
1663326955871467300,9.36246728515625,-0.5305190086364746,0.009764480404555798,-0.03141731023788452
1663326955881424400,9.37242431640625,-0.5256733894348145,-0.022457372397184372,-0.020556939765810966
1663326955891381200,9.38238134765625,-0.5274185538291931,-0.0470023974776268,0.020067984238266945
1663326955901337300,9.39233740234375,-0.5341060161590576,-0.05126185715198517,0.08398118615150452
1663326955911294500,9.40229443359375,-0.5500503778457642,-0.04441247135400772,0.14354677498340607
1663326955921251300,9.412251220703125,-0.5795608162879944,-0.03855937719345093,0.19523367285728455
1663326955931208400,9.42220849609375,-0.6100079417228699,-0.03425357863306999,0.21751128137111664
1663326955941164300,9.432164306640624,-0.6324996948242188,-0.029279325157403946,0.19198141992092133
1663326955951121400,9.442121337890624,-0.635919451713562,-0.05503502115607262,0.12472089380025864
1663326955961078500,9.45207861328125,-0.6185932159423828,-0.10102994740009308,0.03624748811125755
1663326955971035100,9.46203515625,-0.5853462815284729,-0.13830913603305817,-0.022909842431545258
1663326955980992300,9.4719921875,-0.5549020767211914,-0.14825551211833954,-0.025531992316246033
1663326955990948400,9.4819482421875,-0.5236384272575378,-0.13663721084594727,0.009365538135170937
1663326956000905200,9.4919052734375,-0.5011403560638428,-0.1119595542550087,0.0509587898850441
1663326956010862300,9.5018623046875,-0.4856226146221161,-0.06855428963899612,0.09658566117286682
1663326956020819500,9.5118193359375,-0.48185691237449646,-0.025905100628733635,0.12190007418394089
1663326956030775300,9.521775390625,-0.4801466464996338,0.0089391665533185,0.12005530297756195
1663326956040732400,9.531732421875,-0.4771644175052643,0.026131736114621162,0.09653479605913162
1663326956050689500,9.541689453125,-0.4705755114555359,0.012463860213756561,0.053586527705192566
1663326956060646400,9.551646484375,-0.44909098744392395,-0.013101953081786633,0.018502311781048775
1663326956070602500,9.5616025390625,-0.4229517877101898,-0.026501115411520004,-0.01181964110583067
1663326956080559400,9.571559326171876,-0.4029964506626129,-0.01245267502963543,-0.04049176722764969
1663326956090516200,9.58151611328125,-0.386211097240448,0.012497149407863617,-0.08861135691404343
1663326956100473300,9.591473388671876,-0.35936588048934937,0.027655063197016716,-0.1440189629793167
1663326956110429200,9.60142919921875,-0.3251269459724426,0.03832102194428444,-0.1905670166015625
1663326956120386300,9.61138623046875,-0.2812343239784241,0.04078977555036545,-0.23807860910892487
1663326956130343400,9.621343505859375,-0.23086996376514435,0.049488723278045654,-0.28818678855895996
1663326956140300300,9.63130029296875,-0.19319050014019012,0.09290970116853714,-0.31241223216056824
1663326956150256400,9.64125634765625,-0.1692923605442047,0.18299272656440735,-0.31393715739250183
1663326956160213200,9.651213134765625,-0.14415717124938965,0.30730295181274414,-0.32876989245414734
1663326956170170400,9.66117041015625,-0.10810090601444244,0.4453151524066925,-0.35804682970046997
1663326956180127500,9.67112744140625,-0.0439717173576355,0.5493094325065613,-0.39574146270751953
1663326956190084400,9.68108447265625,0.05215214937925339,0.6148709058761597,-0.4511714577674866
1663326956200040400,9.69104052734375,0.1422301083803177,0.601026713848114,-0.5387726426124573
1663326956209997300,9.700997314453126,0.23385803401470184,0.554323136806488,-0.627618670463562
1663326956219954200,9.7109541015625,0.3423919677734375,0.5305600166320801,-0.6891421675682068
1663326956229911300,9.720911376953126,0.4834343194961548,0.5712522864341736,-0.6589704155921936
1663326956239867400,9.730867431640625,0.6708542704582214,0.656915545463562,-0.5302808880805969
1663326956249824300,9.74082421875,0.9048755764961243,0.7918552756309509,-0.38518309593200684
1663326956259781400,9.750781494140625,1.166103482246399,1.0132739543914795,-0.2596909701824188
1663326956269738500,9.760738525390625,1.4399222135543823,1.3671443462371826,-0.17615345120429993
1663326956279694300,9.7706943359375,1.7314512729644775,1.8901666402816772,-0.1709778755903244
1663326956289651500,9.7806513671875,2.0034677982330322,2.4940989017486572,-0.19897887110710144
1663326956299608300,9.7906083984375,2.2060041427612305,2.9308788776397705,-0.16633518040180206
1663326956309565200,9.800565185546875,2.3512556552886963,2.9814281463623047,0.02196468785405159
1663326956319521500,9.810521484375,2.4742467403411865,2.6190364360809326,0.33243653178215027
1663326956329478100,9.82047802734375,2.5431201457977295,1.9994944334030151,0.6829383373260498
1663326956339435300,9.830435302734376,2.5762243270874023,1.2722722291946411,0.9569070339202881
1663326956349392400,9.840392333984376,2.612229347229004,0.5827153325080872,1.0985838174819946
1663326956359348200,9.85034814453125,2.647968292236328,0.07423587888479233,1.078910231590271
1663326956369305300,9.860305419921875,2.7149486541748047,-0.25239577889442444,0.9534340500831604
1663326956379262500,9.870262451171875,2.8481483459472656,-0.5606124401092529,0.7837550044059753
1663326956389219300,9.88021923828125,3.051124334335327,-0.8819177746772766,0.6392249464988708
1663326956399176400,9.890176513671875,3.3168208599090576,-1.1821057796478271,0.5535393357276917
1663326956409132300,9.90013232421875,3.592111349105835,-1.433978796005249,0.5788010358810425
1663326956419089400,9.91008935546875,3.8182482719421387,-1.5926531553268433,0.772570788860321
1663326956429046300,9.92004638671875,3.9943325519561768,-1.5851826667785645,1.0821800231933594
1663326956439003100,9.930003173828124,4.116430759429932,-1.3980085849761963,1.4100172519683838
1663326956448959200,9.939959228515624,4.207618713378906,-1.112319827079773,1.6837944984436035
1663326956458916400,9.949916259765626,4.28794002532959,-0.8078725934028625,1.898344874382019
1663326956468873200,9.959873291015626,4.359128475189209,-0.5303826332092285,2.0456693172454834
1663326956478830300,9.969830322265626,4.409451484680176,-0.3315664827823639,2.105053663253784
1663326956488786400,9.979786376953125,4.457392692565918,-0.2868879735469818,2.046900510787964
1663326956498743300,9.989743408203125,4.4673638343811035,-0.3107301890850067,1.8542959690093994
1663326956508700400,9.999700439453125,4.456929683685303,-0.34454086422920227,1.554642915725708
1663326956518657500,10.009657470703125,4.46985387802124,-0.35428911447525024,1.1599198579788208
1663326956528613400,10.01961328125,4.476077079772949,-0.29421645402908325,0.7414040565490723
1663326956538570500,10.029570556640625,4.444005489349365,-0.19933201372623444,0.43952223658561707
1663326956548527400,10.03952734375,4.388709545135498,-0.10271519422531128,0.2875460386276245
1663326956558484200,10.049484130859375,4.334019184112549,-0.005014466121792793,0.25552523136138916
1663326956568441300,10.05944140625,4.291686058044434,0.053336724638938904,0.2967645525932312
1663326956578397200,10.069397216796874,4.237858772277832,0.08037020266056061,0.3229394257068634
1663326956588354300,10.079354248046876,4.083172798156738,0.2160862237215042,0.2757490277290344
1663326956598311400,10.0893115234375,3.770235776901245,0.45691826939582825,0.13937360048294067
1663326956608268300,10.099268310546876,3.3097312450408936,0.5385039448738098,-0.08680946379899979
1663326956618224400,10.109224365234375,2.803117275238037,0.2384016513824463,-0.3131334185600281
1663326956628181500,10.119181396484375,2.45408034324646,-0.39857906103134155,-0.36377954483032227
1663326956638138400,10.129138427734375,2.388820171356201,-1.1795185804367065,-0.2432480752468109
1663326956648095500,10.139095458984375,2.4450910091400146,-1.8449701070785522,0.01366494596004486
1663326956658051300,10.14905126953125,2.4733996391296387,-2.1384315490722656,0.3768647313117981
1663326956668008400,10.159008544921875,2.387324094772339,-2.0657315254211426,0.7211294174194336
1663326956677965300,10.16896533203125,2.207202434539795,-1.6848427057266235,1.005837321281433
1663326956687922200,10.178922119140625,1.9492435455322266,-1.0589641332626343,1.2321444749832153
1663326956697878300,10.188878173828124,1.6448566913604736,-0.32133835554122925,1.3893420696258545
1663326956707836000,10.1988359375,1.4207903146743774,0.3232582211494446,1.5691773891448975
1663326956717793000,10.20879296875,1.3707407712936401,0.7111591100692749,1.8278368711471558
1663326956727750100,10.218750244140624,1.4292335510253906,0.7996324896812439,2.0703089237213135
1663326956737707000,10.22870703125,1.5860722064971924,0.6043535470962524,2.1935184001922607
1663326956747663000,10.2386630859375,1.7734596729278564,0.35391467809677124,2.131730318069458
1663326956757620200,10.2486201171875,1.8671834468841553,0.17926828563213348,1.879348874092102
1663326956767576800,10.258576904296875,1.8662447929382324,0.012257731519639492,1.4977558851242065
1663326956777534000,10.268533935546875,1.7663307189941406,-0.1567067950963974,1.0663193464279175
1663326956787490000,10.278489990234375,1.5136417150497437,-0.2947051525115967,0.6565067768096924
1663326956797447000,10.288447021484375,1.1828768253326416,-0.33226343989372253,0.28252464532852173
1663326956807404000,10.298404052734375,0.8037683963775635,-0.324461430311203,-0.029514748603105545
1663326956817361200,10.308361083984375,0.4600650668144226,-0.34005850553512573,-0.2729654908180237
1663326956827317000,10.31831689453125,0.19466428458690643,-0.39565491676330566,-0.465567946434021
1663326956837274000,10.328274169921874,0.011147193610668182,-0.4212532341480255,-0.6223008632659912
1663326956847231000,10.33823095703125,-0.09421757608652115,-0.3741943836212158,-0.733863353729248
1663326956857188000,10.34818798828125,-0.11711171269416809,-0.2878972887992859,-0.8101085424423218
1663326956867144200,10.358144287109376,-0.0753546729683876,-0.19687284529209137,-0.9274322390556335
1663326956877101000,10.36810107421875,-0.03674283251166344,-0.15902294218540192,-1.0510036945343018
1663326956887058000,10.378057861328125,-0.023086143657565117,-0.21514160931110382,-1.1246966123580933
1663326956897015000,10.38801513671875,-0.06114804372191429,-0.3630322515964508,-1.111048698425293
1663326956906972000,10.397971923828125,-0.14437821507453918,-0.5374714732170105,-0.9930975437164307
1663326956916928000,10.407927978515625,-0.23661333322525024,-0.6498222351074219,-0.7649922370910645
1663326956926885000,10.417885009765625,-0.29473844170570374,-0.5661238431930542,-0.45266735553741455
1663326956936842000,10.427842041015625,-0.3167736828327179,-0.28596383333206177,-0.17032060027122498
1663326956946799000,10.437799072265625,-0.33278888463974,0.0578896664083004,-0.004218979738652706
1663326956956755000,10.4477548828125,-0.3670770823955536,0.3441219627857208,0.0477701835334301
1663326956966712000,10.457712158203124,-0.3857455551624298,0.46777546405792236,0.032278046011924744
1663326956976669200,10.467669189453124,-0.38913843035697937,0.4268368184566498,0.008688828907907009
1663326956986625800,10.477625732421876,-0.39567169547080994,0.26298874616622925,-0.016055665910243988
1663326956996582100,10.48758203125,-0.37223055958747864,0.06981503218412399,-0.011022024787962437
1663326957006539000,10.4975390625,-0.2911151945590973,-0.06842406839132309,0.0386296845972538
1663326957016495900,10.507495849609375,-0.1758011281490326,-0.05927983671426773,0.10124725848436356
1663326957026453000,10.517452880859375,-0.07201693207025528,0.10838878899812698,0.13652561604976654
1663326957036410000,10.52741015625,-0.029318474233150482,0.38887903094291687,0.12060044705867767
1663326957046366000,10.537365966796875,-0.009602027013897896,0.6264391541481018,0.056895773857831955
1663326957056323000,10.547322998046875,0.048881787806749344,0.6559954285621643,-0.061883874237537384
1663326957066280200,10.5572802734375,0.058696601539850235,0.4507914185523987,-0.23135200142860413
1663326957076237000,10.567237060546875,0.006533000618219376,0.1689607948064804,-0.3714712858200073
1663326957086193200,10.577193115234374,-0.056359946727752686,-0.16611893475055695,-0.4480278491973877
1663326957096150000,10.58714990234375,-0.11653167009353638,-0.4185445308685303,-0.41966599225997925
1663326957106107000,10.59710693359375,-0.14446823298931122,-0.44739454984664917,-0.2695063054561615
1663326957116064000,10.60706396484375,-0.14595960080623627,-0.09104149043560028,-0.04747563973069191
1663326957126019800,10.617019775390625,-0.17719902098178864,0.4902815520763397,0.16897037625312805
1663326957135977000,10.62697705078125,-0.22778549790382385,0.9962113499641418,0.34046462178230286
1663326957145934000,10.63693408203125,-0.29243531823158264,1.2422845363616943,0.42634493112564087
1663326957155891000,10.646890869140625,-0.34908077120780945,1.1803805828094482,0.3859778046607971
1663326957165848000,10.65684814453125,-0.3884103298187256,0.8539098501205444,0.2555167078971863
1663326957175804000,10.666803955078125,-0.37359383702278137,0.42142924666404724,0.10691313445568085
1663326957185761000,10.676760986328125,-0.33031558990478516,0.053161486983299255,-0.014230867847800255
1663326957195718100,10.68671826171875,-0.2951245903968811,-0.07806284725666046,-0.04754674434661865
1663326957205675000,10.696675048828125,-0.3291616439819336,0.12755076587200165,0.01666100136935711
1663326957215631000,10.706631103515624,-0.45796462893486023,0.5901975035667419,0.11434601992368698
1663326957225588000,10.716587890625,-0.6471399068832397,1.066214919090271,0.19601717591285706
1663326957235544800,10.726544921875,-0.811130702495575,1.3414933681488037,0.29936593770980835
1663326957245502000,10.736501953125,-0.9098929762840271,1.3223047256469727,0.3856734037399292
1663326957255458000,10.7464580078125,-0.9655647277832031,1.0787807703018188,0.36200669407844543
1663326957265415000,10.756414794921875,-0.9837349653244019,0.72109454870224,0.2540613114833832
1663326957275372000,10.7663720703125,-0.966394305229187,0.35047706961631775,0.11175689101219177
1663326957285329200,10.7763291015625,-0.943600058555603,0.053888533264398575,-0.060735251754522324
1663326957295286000,10.7862861328125,-0.9725616574287415,-0.14321334660053253,-0.20602241158485413
1663326957305242000,10.7962421875,-1.1316325664520264,-0.14233849942684174,-0.2948593199253082
1663326957315199000,10.806198974609375,-1.399671196937561,0.023019032552838326,-0.3569360077381134
1663326957325156000,10.816156005859375,-1.6721998453140259,0.183580219745636,-0.4265103042125702
1663326957335113000,10.826113037109375,-1.9146509170532227,0.20297788083553314,-0.5060842037200928
1663326957345069000,10.836069091796874,-2.099944829940796,0.05253351479768753,-0.6356752514839172
1663326957355026000,10.84602587890625,-2.2490909099578857,-0.2454552948474884,-0.8171712756156921
1663326957364983000,10.855983154296876,-2.373544216156006,-0.6089775562286377,-0.9489567279815674
1663326957374940000,10.86593994140625,-2.473759889602661,-0.9907694458961487,-0.9975764751434326
1663326957384896000,10.87589599609375,-2.5765113830566406,-1.3509025573730469,-0.9762775897979736
1663326957394853000,10.88585302734375,-2.70945143699646,-1.6151396036148071,-0.8718744516372681
1663326957404810000,10.89581005859375,-2.8670895099639893,-1.708922266960144,-0.7212234139442444
1663326957414767000,10.90576708984375,-3.0598926544189453,-1.694727897644043,-0.6065690517425537
1663326957424724200,10.91572412109375,-3.2144908905029297,-1.66971755027771,-0.6209860444068909
1663326957434680000,10.92568017578125,-3.2437422275543213,-1.677537441253662,-0.7932126522064209
1663326957444637200,10.93563720703125,-3.165564775466919,-1.7169036865234375,-1.1257373094558716
1663326957454593800,10.94559375,-3.04105281829834,-1.7571765184402466,-1.5589582920074463
1663326957464551000,10.955551025390625,-2.9376444816589355,-1.7436951398849487,-1.955796480178833
1663326957474507000,10.965507080078124,-2.9551339149475098,-1.639302372932434,-2.2042267322540283
1663326957484463900,10.9754638671875,-3.0655882358551025,-1.4179681539535522,-2.2610621452331543
1663326957494421000,10.9854208984375,-3.2541985511779785,-1.0837044715881348,-2.147252082824707
1663326957504378000,10.995378173828126,-3.5408785343170166,-0.7239677906036377,-1.9137928485870361
1663326957514335000,11.0053349609375,-3.8649284839630127,-0.5569508671760559,-1.6462234258651733
1663326957524291000,11.015291015625,-4.11401891708374,-0.7438198328018188,-1.472098469734192
1663326957534248200,11.025248291015625,-4.218029499053955,-1.3862531185150146,-1.459989070892334
1663326957544205000,11.035205078125,-4.129770755767822,-2.404838800430298,-1.6373428106307983
1663326957554162000,11.045161865234375,-3.859691619873047,-3.4350192546844482,-1.9470231533050537
1663326957564118000,11.055117919921875,-3.543611764907837,-4.1887969970703125,-2.1919050216674805
1663326957574075000,11.065074951171875,-3.2990622520446777,-4.512304782867432,-2.2993857860565186
1663326957584032000,11.075031982421875,-3.162928819656372,-4.094188213348389,-2.3222451210021973
1663326957593988900,11.08498876953125,-3.23030424118042,-2.998105049133301,-2.313169479370117
1663326957603945000,11.094945068359374,-3.3727028369903564,-1.511396050453186,-2.309072494506836
1663326957613902000,11.104902099609374,-3.5054728984832764,-0.05824519693851471,-2.3693289756774902
1663326957623859000,11.11485888671875,-3.567427396774292,0.9235286116600037,-2.3663713932037354
1663326957633816000,11.124816162109376,-3.5405874252319336,1.0916515588760376,-2.1910769939422607
1663326957643773200,11.134773193359376,-3.356403350830078,0.578465461730957,-1.8815147876739502
1663326957653729000,11.14472900390625,-3.0710227489471436,-0.30147889256477356,-1.544548749923706
1663326957663686100,11.15468603515625,-2.7771127223968506,-1.1220645904541016,-1.2646270990371704
1663326957673643000,11.16464306640625,-2.5148885250091553,-1.6889146566390991,-1.0636340379714966
1663326957683600000,11.174599853515625,-2.2894413471221924,-1.922019600868225,-0.8978360295295715
1663326957693556000,11.184555908203125,-2.159886121749878,-1.7939097881317139,-0.7823868989944458
1663326957703512800,11.194512939453125,-2.0950727462768555,-1.2880370616912842,-0.7607482075691223
1663326957713470500,11.204470458984375,-2.012392282485962,-0.5561053156852722,-0.7819427251815796
1663326957723427300,11.21442724609375,-1.9131627082824707,0.20525407791137695,-0.7712813019752502
1663326957733384400,11.224384521484374,-1.8685976266860962,0.8308357000350952,-0.7560871243476868
1663326957743340500,11.234340576171874,-1.8702054023742676,1.1686906814575195,-0.7606030702590942
1663326957753297400,11.24429736328125,-1.8625857830047607,1.027727723121643,-0.6793111562728882
1663326957763254500,11.254254638671876,-1.844242811203003,0.4571435749530792,-0.45836037397384644
1663326957773211400,11.26421142578125,-1.8554596900939941,-0.2847757935523987,-0.21082808077335358
1663326957783167500,11.27416748046875,-1.860919713973999,-0.894216001033783,-0.0249804500490427
1663326957793124400,11.284124267578125,-1.8397201299667358,-1.245602011680603,0.12816356122493744
1663326957803081200,11.294081298828125,-1.8028903007507324,-1.2992154359817505,0.25394704937934875
1663326957813038300,11.304038330078125,-1.779337763786316,-1.0764081478118896,0.31673985719680786
1663326957822994400,11.313994384765625,-1.761000633239746,-0.6441797614097595,0.3188813030719757
1663326957832951300,11.323951416015625,-1.725082278251648,-0.13941141963005066,0.3388531506061554
1663326957842908400,11.333908447265625,-1.6678986549377441,0.3539245128631592,0.40782982110977173
1663326957852865500,11.343865478515625,-1.5928014516830444,0.7816327214241028,0.5200216174125671
1663326957862822400,11.353822509765624,-1.4901968240737915,1.1203423738479614,0.639805793762207
1663326957872778500,11.363778564453124,-1.3733031749725342,1.3572938442230225,0.7237542271614075
1663326957882735600,11.373735595703126,-1.2321500778198242,1.5207403898239136,0.7412839531898499
1663326957892692200,11.383692138671876,-1.0882622003555298,1.5741302967071533,0.6765041351318359
1663326957902649300,11.3936494140625,-0.9801969528198242,1.3819084167480469,0.5261295437812805
1663326957912605200,11.403605224609375,-0.8948529958724976,0.9666078686714172,0.3491303026676178
1663326957922562300,11.413562255859375,-0.8316375613212585,0.49324965476989746,0.18428274989128113
1663326957932519400,11.42351953125,-0.773406445980072,0.07688998430967331,0.05741668865084648
1663326957942476300,11.433476318359375,-0.7303370237350464,-0.19477294385433197,-0.0273826215416193
1663326957952433400,11.443433349609375,-0.7111223340034485,-0.2812039852142334,-0.05733013525605202
1663326957962389500,11.453389404296875,-0.6630525588989258,-0.15131042897701263,-0.051292482763528824
1663326957972346400,11.463346435546875,-0.5952923893928528,0.07967006415128708,-0.0033963292371481657
1663326957982303500,11.473303466796875,-0.5095356702804565,0.3317566215991974,0.04699493944644928
1663326957992260400,11.48326025390625,-0.4059685468673706,0.5884451270103455,0.08295506983995438
1663326958002216400,11.493216552734374,-0.2867835760116577,0.8028274774551392,0.10461216419935226
1663326958012173300,11.50317333984375,-0.17697450518608093,0.918420135974884,0.10026055574417114
1663326958022130400,11.51313037109375,-0.07156126946210861,0.9362353682518005,0.07012742012739182
1663326958032087300,11.52308740234375,-0.01065078005194664,0.8015835285186768,0.04056793078780174
1663326958042043400,11.53304345703125,0.022246716544032097,0.5448036789894104,0.04683248698711395
1663326958052000300,11.543000244140625,0.03699130564928055,0.266259104013443,0.0887857973575592
1663326958061957400,11.552957275390625,0.042458776384592056,0.054608382284641266,0.15009815990924835
1663326958071914500,11.56291455078125,0.04182414710521698,-0.06354808062314987,0.21511976420879364
1663326958081871400,11.572871337890625,0.06023218110203743,-0.0941011980175972,0.2622923254966736
1663326958091827500,11.582827392578125,0.09877744317054749,-0.061343517154455185,0.2822657823562622
1663326958101784600,11.59278466796875,0.1663128137588501,0.02634745091199875,0.2700336277484894
1663326958111741200,11.6027412109375,0.23230913281440735,0.17691165208816528,0.23280927538871765
1663326958121698300,11.6126982421875,0.28093472123146057,0.358308345079422,0.17717984318733215
1663326958131654400,11.622654296875,0.3076086938381195,0.5280574560165405,0.11761371791362762
1663326958141611300,11.632611328125,0.3091285526752472,0.6363628506660461,0.08653968572616577
1663326958151568400,11.642568359375,0.2994527518749237,0.6301185488700867,0.09427190572023392
1663326958161525500,11.652525390625,0.28557687997817993,0.5327270030975342,0.13303475081920624
1663326958171482400,11.662482421875,0.26613980531692505,0.3711000382900238,0.19192816317081451
1663326958181438500,11.6724384765625,0.24048477411270142,0.1641671061515808,0.24141821265220642
1663326958191395300,11.682395263671875,0.2239002138376236,-0.030784010887145996,0.266777902841568
1663326958201352400,11.6923525390625,0.22325359284877777,-0.16704465448856354,0.2466161698102951
1663326958211309300,11.702309326171875,0.23914706707000732,-0.22088710963726044,0.1824084222316742
1663326958221265400,11.712265380859375,0.263083815574646,-0.19772052764892578,0.08931522816419601
1663326958231222300,11.72222216796875,0.2795506715774536,-0.08917567878961563,0.0019558256026357412
1663326958241179400,11.732179443359374,0.27735865116119385,0.07585641741752625,-0.06155896931886673
1663326958251136300,11.74213623046875,0.2618694305419922,0.21737758815288544,-0.0827697142958641
1663326958261093400,11.75209326171875,0.23327027261257172,0.301782488822937,-0.07153410464525223
1663326958271049500,11.762049560546876,0.2101854532957077,0.3197348713874817,-0.04526175558567047
1663326958281006300,11.77200634765625,0.19465869665145874,0.254935085773468,-0.006954045966267586
1663326958290963500,11.78196337890625,0.20015013217926025,0.13266056776046753,0.03714577108621597
1663326958300920600,11.791920654296876,0.2137458473443985,-0.007366569712758064,0.08143200725317001
1663326958310876400,11.80187646484375,0.21537169814109802,-0.1479303389787674,0.096693255007267
1663326958320833500,11.81183349609375,0.18560607731342316,-0.23290622234344482,0.09399040788412094
1663326958330790400,11.821790283203125,0.12318771332502365,-0.25072890520095825,0.09520401060581207
1663326958340747300,11.831747314453125,0.06351453065872192,-0.21883328258991241,0.11454575508832932
1663326958350704400,11.841704345703125,0.015169365331530571,-0.17035415768623352,0.14540167152881622
1663326958360660200,11.85166015625,-0.015607988461852074,-0.11855301260948181,0.17210732400417328
1663326958370617300,11.861617431640624,-0.02702123112976551,-0.07180814445018768,0.18406064808368683
1663326958380574500,11.871574462890624,-0.03462136164307594,-0.022049641236662865,0.17157788574695587
1663326958390531300,11.88153125,-0.04676537588238716,-0.00490181427448988,0.14477023482322693
1663326958400487400,11.8914873046875,-0.06293688714504242,-0.05279477313160896,0.08807579427957535
1663326958410444500,11.901444580078126,-0.06675826013088226,-0.14124368131160736,0.024870462715625763
1663326958420401400,11.9114013671875,-0.067423515021801,-0.23812147974967957,0.0001960086519829929
1663326958430358500,11.921358642578125,-0.05383286997675896,-0.33105170726776123,0.017070597037672997
1663326958440315400,11.9313154296875,-0.03356248885393143,-0.3883996605873108,0.039556197822093964
1663326958450271500,11.941271484375,-0.02202833630144596,-0.3665614724159241,0.046124882996082306
1663326958460228400,11.951228271484375,-0.013129117898643017,-0.28822165727615356,0.03014352172613144
1663326958470185200,11.961185302734375,-0.010868893004953861,-0.17280693352222443,0.0036495958920568228
1663326958480142300,11.971142333984375,0.0016088156262412667,-0.07113196700811386,-0.032457541674375534
1663326958490098400,11.981098388671874,0.028802087530493736,-0.007749798707664013,-0.07471498101949692
1663326958500055300,11.99105517578125,0.06887839734554291,0.022240856662392616,-0.09631028771400452
1663326958510012400,12.001012451171874,0.09514728933572769,0.017474597319960594,-0.08944252878427505
1663326958519969500,12.010969482421874,0.10086296498775482,-0.04904450848698616,-0.07634510099887848
1663326958529926400,12.020926513671874,0.09098397195339203,-0.16176919639110565,-0.0578790120780468
1663326958539882500,12.030882568359376,0.07522817701101303,-0.27491626143455505,-0.03983369842171669
1663326958549839600,12.040839599609376,0.07610435783863068,-0.3631923198699951,-0.00914715975522995
1663326958559796200,12.050796142578125,0.0841447040438652,-0.42334941029548645,0.028801821172237396
1663326958569753300,12.06075341796875,0.08951683342456818,-0.4226633608341217,0.02977973408997059
1663326958579709200,12.070709228515625,0.09215336292982101,-0.3460354506969452,0.009103217162191868
1663326958589666300,12.080666259765625,0.10141823440790176,-0.23261700570583344,-0.004340952727943659
1663326958599623400,12.09062353515625,0.11900361627340317,-0.13409201800823212,-0.034151311963796616
1663326958609580300,12.100580322265625,0.13910461962223053,-0.03340642526745796,-0.09058129787445068
1663326958619537400,12.110537353515625,0.14871597290039062,0.08036647737026215,-0.1458701193332672
1663326958629493500,12.120493408203124,0.1483287513256073,0.16556206345558167,-0.15579864382743835
1663326958639450400,12.130450439453124,0.1482539176940918,0.20779474079608917,-0.12249208986759186
1663326958649407500,12.140407470703124,0.13579991459846497,0.17124977707862854,-0.05609815567731857
1663326958659364400,12.1503642578125,0.12034744769334793,0.1062856912612915,0.013015933334827423
1663326958669320400,12.160320556640626,0.09306363016366959,0.03208017349243164,0.08259794116020203
1663326958679277300,12.17027734375,0.06479444354772568,-0.02742922678589821,0.12981471419334412
1663326958689234400,12.180234375,0.05602678284049034,-0.06395075470209122,0.14346714317798615
1663326958699191300,12.19019140625,0.05789632350206375,-0.058647334575653076,0.1320967823266983
1663326958709147600,12.200147705078125,0.05692986026406288,-0.03362959995865822,0.11453057080507278
1663326958719103500,12.210103515625,0.06284740567207336,-0.005788647104054689,0.09314858913421631
1663326958729060600,12.220060546875,0.06828851252794266,0.01587563566863537,0.05505872517824173
1663326958739017700,12.230017822265625,0.06594067066907883,0.035349201411008835,-0.0018839201657101512
1663326958748974600,12.239974609375,0.046909451484680176,0.05023520812392235,-0.05405018478631973
1663326958758930700,12.2499306640625,0.017499631270766258,0.03730928897857666,-0.10373544692993164
1663326958768887600,12.259887451171876,-0.0031766186002641916,0.003035204717889428,-0.14034219086170197
1663326958778844700,12.2698447265625,-0.010978614911437035,-0.02839941717684269,-0.15209072828292847
1663326958788801800,12.2798017578125,-0.015326491557061672,-0.06684108078479767,-0.14092755317687988
1663326958798758700,12.289758544921876,-0.008437693119049072,-0.09417949616909027,-0.11691170930862427
1663326958808714800,12.29971484375,-0.0044195158407092094,-0.0847199484705925,-0.09331530332565308
1663326958818671600,12.309671630859375,-0.005264270585030317,-0.04315918684005737,-0.07499275356531143
1663326958828628500,12.31962841796875,-0.00788455456495285,-0.00535348616540432,-0.0596231147646904
1663326958838585600,12.329585693359375,-0.009852631017565727,0.021459752693772316,-0.052374791353940964
1663326958848541700,12.339541748046875,-0.0211846474558115,0.034635476768016815,-0.060508884489536285
1663326958858498600,12.34949853515625,-0.03507542982697487,0.03297632560133934,-0.057129330933094025
1663326958868455700,12.35945556640625,-0.037395041435956955,0.02358442172408104,-0.057375140488147736
1663326958878412800,12.369412841796875,-0.014988270588219166,-0.01306094042956829,-0.08743104338645935
1663326958888369700,12.37936962890625,0.014593057334423065,-0.05602465197443962,-0.13574904203414917
1663326958898325800,12.38932568359375,0.03220720589160919,-0.08375668525695801,-0.1747150868177414
1663326958908283000,12.399282958984376,0.041246239095926285,-0.09369400143623352,-0.1921987384557724
1663326958918239500,12.409239501953126,0.04236503317952156,-0.06562720984220505,-0.17975671589374542
1663326958928196600,12.419196533203126,0.03506824001669884,-0.03191079571843147,-0.12626925110816956
1663326958938152400,12.42915234375,0.0206349715590477,-0.008069911040365696,-0.05771256610751152
1663326958948109600,12.439109619140625,0.012570386752486229,0.012205000966787338,0.00006151902198325843
1663326958958066700,12.449066650390625,0.0065324679017066956,0.021266140043735504,0.029203426092863083
1663326958968023600,12.4590234375,-0.0015869776252657175,0.015427425503730774,0.04068724066019058
1663326958977980700,12.468980712890625,-0.00941960047930479,0.006450442597270012,0.027365311980247498
1663326958987936800,12.478936767578125,-0.01587616838514805,-0.0049409628845751286,0.004514324478805065
1663326958997893600,12.4888935546875,-0.02178279310464859,-0.024111460894346237,-0.026392458006739616
1663326959007850800,12.498850830078124,-0.022245917469263077,-0.047139815986156464,-0.04379089176654816
1663326959017807600,12.5088076171875,-0.024590032175183296,-0.059550944715738297,-0.053755905479192734
1663326959027763700,12.518763671875,-0.0277972761541605,-0.05705529823899269,-0.06642216444015503
1663326959037720600,12.528720458984376,-0.027844414114952087,-0.049919355660676956,-0.06992289423942566
1663326959047677700,12.538677734375,-0.014573882333934307,-0.03880864754319191,-0.0680786520242691
1663326959057634600,12.548634521484376,-0.006228334736078978,-0.028674788773059845,-0.05860765278339386
1663326959067591700,12.558591796875,0.0049092709086835384,-0.016575781628489494,-0.0563996247947216
1663326959077547500,12.568547607421875,0.008127967827022076,-0.012058527208864689,-0.05807315558195114
1663326959087504600,12.578504638671875,0.0003414172388147563,-0.012195413932204247,-0.05660708621144295
1663326959097461800,12.588461669921875,-0.01576351746916771,-0.017015734687447548,-0.04676004871726036
1663326959107418600,12.598418701171875,-0.03209029138088226,-0.022404108196496964,-0.029998112469911575
1663326959117374700,12.608374755859375,-0.04342923313379288,-0.03904939815402031,-0.006568686570972204
1663326959127331800,12.618331787109375,-0.04408836364746094,-0.056043826043605804,0.01034584827721119
1663326959137288400,12.628288330078124,-0.03133075684309006,-0.07124382257461548,0.00811997801065445
1663326959147245600,12.63824560546875,-0.010231331922113895,-0.08094757795333862,-0.025196699425578117
1663326959157202700,12.64820263671875,0.01817367784678936,-0.08451994508504868,-0.05386030301451683
1663326959167158500,12.658158447265626,0.04061267524957657,-0.07504814863204956,-0.07019080221652985
1663326959177115600,12.66811572265625,0.05104347690939903,-0.0626431405544281,-0.0901048555970192
1663326959187072800,12.67807275390625,0.04421592876315117,-0.034387536346912384,-0.09700457751750946
1663326959197029600,12.688029541015625,0.03351561725139618,-0.01768418774008751,-0.07052157074213028
1663326959206986800,12.69798681640625,0.027964256703853607,-0.01564340852200985,-0.01787646859884262
1663326959216942600,12.707942626953125,0.02599511481821537,-0.014042582362890244,0.02287176065146923
1663326959226899700,12.717899658203125,0.03400377184152603,0.005622998345643282,0.04422685131430626
1663326959236856600,12.727856689453125,0.04466281086206436,0.013394901528954506,0.053355634212493896
1663326959246813400,12.7378134765625,0.050450123846530914,0.028790635988116264,0.04009468853473663
1663326959256769500,12.74776953125,0.04403350502252579,0.042443063110113144,0.0076123797334730625
1663326959266726700,12.7577265625,0.04151521995663643,0.034814704209566116,-0.034516699612140656
1663326959276683500,12.76768359375,0.03954820707440376,0.0038099181838333607,-0.05492450296878815
1663326959286640600,12.777640625,0.03681713715195656,-0.02215483784675598,-0.06214193254709244
1663326959296597800,12.78759765625,0.0388195663690567,-0.03720888867974281,-0.0672200471162796
1663326959306553600,12.7975537109375,0.040333040058612823,-0.041672345250844955,-0.06912900507450104
1663326959316510700,12.8075107421875,0.04061533510684967,-0.018690863624215126,-0.07764951884746552
1663326959326467800,12.8174677734375,0.043419379740953445,0.009868343360722065,-0.09128250926733017
1663326959336424700,12.8274248046875,0.043347738683223724,0.024562601000070572,-0.10778771340847015
1663326959346380800,12.837380859375,0.04885808750987053,0.023445138707756996,-0.11937699466943741
1663326959356337700,12.847337646484375,0.049670085310935974,0.005194495897740126,-0.109161376953125
1663326959366294500,12.85729443359375,0.044128578156232834,-0.024293089285492897,-0.10839704424142838
1663326959376251600,12.867251708984375,0.04421939328312874,-0.043901942670345306,-0.11584378033876419
1663326959386208500,12.87720849609375,0.04048404470086098,-0.053279466927051544,-0.11435187608003616
1663326959396164600,12.88716455078125,0.040774326771497726,-0.04711691290140152,-0.10721034556627274
1663326959406121700,12.897121826171874,0.04072186350822449,-0.04124011471867561,-0.1001252681016922
1663326959416078600,12.90707861328125,0.03843101114034653,-0.02394927479326725,-0.09084495157003403
1663326959426035700,12.91703564453125,0.03930026665329933,-0.022268021479249,-0.08569919317960739
1663326959435992800,12.926992919921876,0.039813194423913956,-0.02712908945977688,-0.07986766844987869
1663326959445948700,12.93694873046875,0.03891837224364281,-0.03201785311102867,-0.0784255638718605
1663326959455905800,12.94690576171875,0.04918166249990463,-0.03310389071702957,-0.06603334844112396
1663326959465862700,12.956862548828125,0.06300053745508194,-0.03401815518736839,-0.055756472051143646
1663326959475819500,12.966819580078125,0.07109468430280685,-0.02593412809073925,-0.05145813152194023
