time,seconds_elapsed,z,y,x
1662982563164361700,0.34136181640625,-0.961639404296875,-0.2120361328125,0.1544342041015625
1662982563174317600,0.351317626953125,-0.96746826171875,-0.210113525390625,0.155242919921875
1662982563184273700,0.361273681640625,-0.9705047607421875,-0.2079315185546875,0.1547698974609375
1662982563194229500,0.3712294921875,-0.9691925048828125,-0.2053680419921875,0.1527557373046875
1662982563204187100,0.381187255859375,-0.96868896484375,-0.204742431640625,0.1504669189453125
1662982563214143000,0.39114306640625,-0.9734649658203125,-0.2049560546875,0.1492156982421875
1662982563224099000,0.40109912109375,-0.9774932861328125,-0.2063751220703125,0.1471710205078125
1662982563234055200,0.41105517578125,-0.9781951904296875,-0.2066650390625,0.1456451416015625
1662982563244011300,0.42101123046875,-0.975494384765625,-0.2087860107421875,0.1477813720703125
1662982563253968100,0.430968017578125,-0.9743804931640625,-0.2101287841796875,0.1493682861328125
1662982563263924200,0.44092431640625,-0.9748687744140625,-0.20947265625,0.151031494140625
1662982563273880000,0.450880126953125,-0.974151611328125,-0.207855224609375,0.149749755859375
1662982563283836200,0.460836181640625,-0.972503662109375,-0.20758056640625,0.14959716796875
1662982563293792000,0.4707919921875,-0.9696044921875,-0.207763671875,0.1492156982421875
1662982563303748000,0.480748046875,-0.970550537109375,-0.2074127197265625,0.146820068359375
1662982563313705000,0.490705078125,-0.9719696044921875,-0.206695556640625,0.1454315185546875
1662982563323661000,0.5006611328125,-0.9730224609375,-0.206207275390625,0.143218994140625
1662982563333617000,0.510616943359375,-0.970489501953125,-0.2037506103515625,0.1410675048828125
1662982563343573000,0.520572998046875,-0.9677276611328125,-0.2027587890625,0.1402587890625
1662982563353529000,0.530529052734375,-0.9686431884765625,-0.2028961181640625,0.141448974609375
1662982563363486000,0.54048583984375,-0.968841552734375,-0.20263671875,0.1419677734375
1662982563373442000,0.550442138671875,-0.9699249267578125,-0.202362060546875,0.140869140625
1662982563383398100,0.560398193359375,-0.9755859375,-0.2034454345703125,0.1403961181640625
1662982563393354200,0.570354248046875,-0.988525390625,-0.20556640625,0.1417999267578125
1662982563403310000,0.58031005859375,-1.0002593994140625,-0.2075653076171875,0.144012451171875
1662982563413267200,0.59026708984375,-1.0067291259765625,-0.210296630859375,0.1463775634765625
1662982563423223000,0.60022314453125,-1.0104827880859375,-0.2223052978515625,0.143768310546875
1662982563433179100,0.61017919921875,-1.0001373291015625,-0.211181640625,0.14129638671875
1662982563443135000,0.620135009765625,-0.9799041748046875,-0.21466064453125,0.1295013427734375
1662982563453091000,0.630091064453125,-0.9709014892578125,-0.2216644287109375,0.1295318603515625
1662982563463047000,0.640046875,-0.966400146484375,-0.2152557373046875,0.1184844970703125
1662982563473004000,0.650004150390625,-0.9729766845703125,-0.204010009765625,0.097259521484375
1662982563482960000,0.6599599609375,-0.9846649169921875,-0.190521240234375,0.085723876953125
1662982563492916200,0.669916259765625,-0.998748779296875,-0.17919921875,0.0806121826171875
1662982563502872000,0.6798720703125,-1.014251708984375,-0.1748809814453125,0.0687255859375
1662982563512828200,0.689828125,-1.0219268798828125,-0.17169189453125,0.0525970458984375
1662982563522785000,0.699784912109375,-1.032501220703125,-0.1636810302734375,0.0239410400390625
1662982563532741000,0.7097412109375,-1.0055694580078125,-0.1287994384765625,0.04254150390625
1662982563542697000,0.719697021484375,-0.9615631103515625,-0.1476593017578125,0.1250152587890625
1662982563552653000,0.729653076171875,-0.9593048095703125,-0.176483154296875,0.0783538818359375
1662982563562609000,0.73960888671875,-0.9831390380859375,-0.1832427978515625,0.0214691162109375
1662982563572566000,0.74956591796875,-0.9969940185546875,-0.1693572998046875,0.012359619140625
1662982563582522000,0.759522216796875,-0.981231689453125,-0.147125244140625,0.0121612548828125
1662982563592478000,0.76947802734375,-0.954315185546875,-0.114532470703125,0.019622802734375
1662982563602434000,0.77943408203125,-0.93743896484375,-0.0572509765625,0.0162506103515625
1662982563612390100,0.78939013671875,-0.9774169921875,-0.0707244873046875,0.012451171875
1662982563622346200,0.79934619140625,-0.989532470703125,-0.1077728271484375,0.0191497802734375
1662982563632303000,0.80930322265625,-0.981353759765625,-0.132843017578125,0.0265045166015625
1662982563642259200,0.81925927734375,-0.9745941162109375,-0.1351165771484375,0.034332275390625
1662982563652215000,0.829215087890625,-0.9542999267578125,-0.1202392578125,0.0324554443359375
1662982563662171100,0.839171142578125,-0.933990478515625,-0.1111907958984375,0.0237884521484375
1662982563672127000,0.849126953125,-0.934295654296875,-0.1069793701171875,0.017791748046875
1662982563682084000,0.859083984375,-0.961639404296875,-0.0886688232421875,0.0277099609375
1662982563692040000,0.8690400390625,-0.9976959228515625,-0.0649566650390625,0.0383453369140625
1662982563701996000,0.87899609375,-1.0330810546875,-0.0608978271484375,0.03228759765625
1662982563711952000,0.888951904296875,-1.05157470703125,-0.071990966796875,0.0207061767578125
1662982563721908000,0.898907958984375,-1.0511627197265625,-0.0877838134765625,0.013763427734375
1662982563731865000,0.908864990234375,-1.0365753173828125,-0.0999603271484375,0.0106048583984375
1662982563741821000,0.918821044921875,-1.0225830078125,-0.1063079833984375,-0.001678466796875
1662982563751777300,0.92877734375,-1.007598876953125,-0.1128692626953125,-0.017547607421875
1662982563761733000,0.938733154296875,-0.9991912841796875,-0.119964599609375,-0.0311279296875
1662982563771689200,0.948689208984375,-0.99920654296875,-0.117919921875,-0.027008056640625
1662982563781646000,0.95864599609375,-1.00689697265625,-0.1114349365234375,-0.023468017578125
1662982563791602200,0.968602294921875,-1.020355224609375,-0.1040191650390625,-0.0235443115234375
1662982563801558000,0.97855810546875,-1.0174560546875,-0.106109619140625,-0.0291748046875
1662982563811514000,0.98851416015625,-1.004425048828125,-0.1135406494140625,-0.046661376953125
1662982563821470000,0.998469970703125,-0.9875030517578125,-0.121063232421875,-0.0498809814453125
1662982563831426000,1.008426025390625,-0.9728546142578125,-0.1279296875,-0.0502471923828125
1662982563841383000,1.0183828125,-0.95361328125,-0.1356201171875,-0.057861328125
1662982563851339000,1.028339111328125,-0.9242095947265625,-0.1533660888671875,-0.0507965087890625
1662982563861295000,1.038295166015625,-0.922698974609375,-0.1640167236328125,-0.0063323974609375
1662982563871251200,1.048251220703125,-0.9584197998046875,-0.1754302978515625,0.0316009521484375
1662982563881207000,1.05820703125,-0.9977569580078125,-0.1854248046875,0.0357818603515625
1662982563891164200,1.0681640625,-1.00799560546875,-0.1769561767578125,0.0167999267578125
1662982563901120000,1.0781201171875,-1.002960205078125,-0.1597137451171875,0.0066680908203125
1662982563911076000,1.088076171875,-1.005645751953125,-0.1445159912109375,-0.00872802734375
1662982563921032000,1.098031982421875,-1.0128173828125,-0.128509521484375,-0.0310211181640625
1662982563930988000,1.107988037109375,-1.013946533203125,-0.1166534423828125,-0.04315185546875
1662982563940945200,1.117945068359375,-0.9993133544921875,-0.108795166015625,-0.0579071044921875
1662982563950901000,1.12790087890625,-0.9959869384765625,-0.1185302734375,-0.082305908203125
1662982563960857000,1.137857177734375,-0.994903564453125,-0.14093017578125,-0.1038970947265625
1662982563970813000,1.14781298828125,-1.0085906982421875,-0.1668701171875,-0.1174468994140625
1662982563980769300,1.157769287109375,-1.060089111328125,-0.185455322265625,-0.0920562744140625
1662982563990726000,1.167725830078125,-1.1174163818359375,-0.19427490234375,-0.0715179443359375
1662982564000682200,1.17768212890625,-1.06402587890625,-0.1900177001953125,-0.091796875
1662982564010638000,1.18763818359375,-1.0009002685546875,-0.1651458740234375,-0.07366943359375
1662982564020594200,1.19759423828125,-0.957977294921875,-0.1692047119140625,-0.0250244140625
1662982564030550000,1.207550048828125,-0.940643310546875,-0.19293212890625,-0.0081787109375
1662982564040506000,1.217506103515625,-0.941680908203125,-0.2113037109375,-0.0062713623046875
1662982564050463000,1.227462890625,-0.946807861328125,-0.2128753662109375,-0.0186309814453125
1662982564060419000,1.237419189453125,-0.9654541015625,-0.205657958984375,-0.02886962890625
1662982564070375000,1.247375,-0.9848480224609375,-0.20489501953125,-0.0307159423828125
1662982564080331000,1.2573310546875,-1.011962890625,-0.2093353271484375,-0.032440185546875
1662982564090286800,1.267286865234375,-1.04412841796875,-0.20867919921875,-0.0426788330078125
1662982564100244000,1.277243896484375,-1.031463623046875,-0.2259674072265625,-0.0657196044921875
1662982564110200000,1.287199951171875,-1.004547119140625,-0.2408447265625,-0.0882110595703125
1662982564120156200,1.29715625,-0.9818115234375,-0.2418365478515625,-0.085784912109375
1662982564130112300,1.3071123046875,-0.9473114013671875,-0.241058349609375,-0.0820465087890625
1662982564140068000,1.317068115234375,-0.9163970947265625,-0.24810791015625,-0.0836639404296875
1662982564150025200,1.327025146484375,-0.903533935546875,-0.2636871337890625,-0.0811920166015625
1662982564159981000,1.33698095703125,-0.89105224609375,-0.2793426513671875,-0.0747833251953125
1662982564169937200,1.346937255859375,-0.8714599609375,-0.28411865234375,-0.074493408203125
1662982564179893000,1.35689306640625,-0.863922119140625,-0.2776947021484375,-0.0790252685546875
1662982564189849000,1.36684912109375,-0.8673095703125,-0.2698822021484375,-0.0830078125
1662982564199805400,1.376805419921875,-0.8876495361328125,-0.266815185546875,-0.0787811279296875
1662982564209762600,1.386762451171875,-0.9152069091796875,-0.2613525390625,-0.06536865234375
1662982564219718400,1.396718505859375,-0.941314697265625,-0.2614288330078125,-0.0535888671875
1662982564229674500,1.406674560546875,-0.9666290283203125,-0.2637176513671875,-0.04254150390625
1662982564239630300,1.41663037109375,-0.9826507568359375,-0.2606658935546875,-0.0413818359375
1662982564249586700,1.426586669921875,-0.9878692626953125,-0.242340087890625,-0.04486083984375
1662982564259543600,1.43654345703125,-0.9554443359375,-0.239105224609375,-0.081207275390625
1662982564269499600,1.446499755859375,-0.9234771728515625,-0.2726898193359375,-0.0646514892578125
1662982564279455700,1.456455810546875,-0.95062255859375,-0.2484130859375,-0.029296875
1662982564289411600,1.46641162109375,-0.9800567626953125,-0.21539306640625,-0.0508880615234375
1662982564299367700,1.47636767578125,-0.9855499267578125,-0.208404541015625,-0.06121826171875
1662982564309324500,1.486324462890625,-0.9953155517578125,-0.207305908203125,-0.03759765625
1662982564319280600,1.49628076171875,-1.0111846923828125,-0.2020111083984375,-0.031341552734375
1662982564329236500,1.506236572265625,-1.0251922607421875,-0.2059173583984375,-0.031494140625
1662982564339192600,1.516192626953125,-1.0377044677734375,-0.212677001953125,-0.0253448486328125
1662982564349148400,1.5261484375,-1.0575103759765625,-0.2187652587890625,-0.0186767578125
1662982564359104500,1.5361044921875,-1.060516357421875,-0.20904541015625,-0.0244140625
1662982564369061400,1.546061279296875,-1.045318603515625,-0.1967010498046875,-0.0364227294921875
1662982564379017500,1.556017578125,-1.017364501953125,-0.1953582763671875,-0.03680419921875
1662982564388973600,1.5659736328125,-0.9912872314453125,-0.1973114013671875,-0.0313262939453125
1662982564398929700,1.5759296875,-0.974609375,-0.1955108642578125,-0.0311431884765625
1662982564408885500,1.585885498046875,-0.9604034423828125,-0.193389892578125,-0.0308074951171875
1662982564418842600,1.595842529296875,-0.9474029541015625,-0.200439453125,-0.01611328125
1662982564428798700,1.605798828125,-0.9469757080078125,-0.20391845703125,-0.0048980712890625
1662982564438754600,1.615754638671875,-0.9701385498046875,-0.18951416015625,-0.0324859619140625
1662982564448710400,1.62571044921875,-0.9799652099609375,-0.1931915283203125,-0.029937744140625
1662982564458666500,1.63566650390625,-0.9704437255859375,-0.1912384033203125,-0.0141754150390625
1662982564468623600,1.64562353515625,-0.9756927490234375,-0.186553955078125,-0.02618408203125
1662982564478579500,1.655579345703125,-0.9826202392578125,-0.1950836181640625,-0.0414886474609375
1662982564488535600,1.66553564453125,-0.9866485595703125,-0.2043304443359375,-0.0359344482421875
1662982564498491600,1.67549169921875,-0.9831695556640625,-0.201080322265625,-0.0273284912109375
1662982564508447700,1.68544775390625,-0.977874755859375,-0.1961212158203125,-0.0250244140625
1662982564518403600,1.695403564453125,-0.9829254150390625,-0.19677734375,-0.0265655517578125
1662982564528360700,1.705360595703125,-0.9938201904296875,-0.1859130859375,-0.02783203125
1662982564538316500,1.715316650390625,-1.0067901611328125,-0.1776885986328125,-0.03106689453125
1662982564548272600,1.725272705078125,-1.0245208740234375,-0.1789398193359375,-0.033447265625
1662982564558228500,1.735228515625,-1.0298614501953125,-0.1784515380859375,-0.0322723388671875
1662982564568184600,1.7451845703125,-1.0198822021484375,-0.178466796875,-0.024505615234375
1662982564578141400,1.755141357421875,-1.00897216796875,-0.1815032958984375,-0.019439697265625
1662982564588097500,1.76509765625,-0.9967498779296875,-0.1821746826171875,-0.015594482421875
1662982564598053400,1.775053466796875,-0.986083984375,-0.182342529296875,-0.016265869140625
1662982564608009500,1.785009521484375,-0.9752197265625,-0.185882568359375,-0.01806640625
1662982564617965600,1.794965576171875,-0.9622344970703125,-0.1867828369140625,-0.0193328857421875
1662982564627922400,1.80492236328125,-0.9521942138671875,-0.1890411376953125,-0.02154541015625
1662982564637878800,1.814878662109375,-0.954437255859375,-0.1923675537109375,-0.028167724609375
1662982564647834600,1.824834716796875,-0.9616241455078125,-0.1960601806640625,-0.0324249267578125
1662982564657790700,1.834790771484375,-0.9763641357421875,-0.1970672607421875,-0.0392303466796875
1662982564667746600,1.84474658203125,-0.993316650390625,-0.1956939697265625,-0.044036865234375
1662982564677702700,1.85470263671875,-1.0048370361328125,-0.1891326904296875,-0.0354766845703125
1662982564687659500,1.864659423828125,-1.0085296630859375,-0.1857147216796875,-0.0275115966796875
1662982564697615600,1.87461572265625,-1.001373291015625,-0.18170166015625,-0.01708984375
1662982564707571500,1.884571533203125,-0.9824371337890625,-0.1778411865234375,-0.0119781494140625
1662982564717527600,1.894527587890625,-0.96929931640625,-0.1883544921875,-0.0106048583984375
1662982564727483400,1.9044833984375,-0.975189208984375,-0.1981658935546875,-0.0170440673828125
1662982564737440500,1.9144404296875,-0.988525390625,-0.19989013671875,-0.0223846435546875
1662982564747396400,1.924396240234375,-1.0023345947265625,-0.1944732666015625,-0.0222320556640625
1662982564757352700,1.934352783203125,-1.01544189453125,-0.190673828125,-0.0231475830078125
1662982564767308500,1.94430859375,-1.0247955322265625,-0.1815338134765625,-0.033447265625
1662982564777264600,1.9542646484375,-1.0335845947265625,-0.1754608154296875,-0.06390380859375
1662982564787221800,1.9642216796875,-1.01336669921875,-0.1828460693359375,-0.0312042236328125
1662982564797177600,1.974177490234375,-1.00299072265625,-0.195831298828125,-0.0057373046875
1662982564807133700,1.9841337890625,-0.9957733154296875,-0.2070770263671875,-0.0172119140625
1662982564817089500,1.994089599609375,-0.9883575439453125,-0.2135009765625,-0.0111083984375
1662982564827045600,2.004045654296875,-0.997406005859375,-0.212158203125,-0.006103515625
1662982564837001500,2.01400146484375,-1.025543212890625,-0.2076263427734375,-0.0414886474609375
1662982564846958600,2.02395849609375,-1.031768798828125,-0.20770263671875,-0.055145263671875
1662982564856914400,2.03391455078125,-1.0318603515625,-0.2083740234375,-0.051727294921875
1662982564866870500,2.04387060546875,-1.01837158203125,-0.2169036865234375,-0.050048828125
1662982564876826600,2.05382666015625,-0.99188232421875,-0.226837158203125,-0.0495452880859375
1662982564886782700,2.06378271484375,-0.964263916015625,-0.2368621826171875,-0.047698974609375
1662982564896739600,2.073739501953125,-0.953277587890625,-0.2425079345703125,-0.0460968017578125
1662982564906695700,2.08369580078125,-0.9579010009765625,-0.233856201171875,-0.036041259765625
1662982564916651500,2.093651611328125,-0.9637908935546875,-0.214630126953125,-0.008575439453125
1662982564926607600,2.103607666015625,-0.965118408203125,-0.2060089111328125,-0.0035247802734375
1662982564936563500,2.1135634765625,-0.9768524169921875,-0.2144317626953125,-0.0294342041015625
1662982564946520600,2.1235205078125,-0.9776611328125,-0.21905517578125,-0.051361083984375
1662982564956476400,2.133476318359375,-0.9397125244140625,-0.2109222412109375,-0.07049560546875
1662982564966432500,2.1434326171875,-0.9398345947265625,-0.1714935302734375,-0.1333160400390625
1662982564976388400,2.153388427734375,-0.93994140625,-0.1542205810546875,-0.1942138671875
1662982564986344400,2.163344482421875,-0.897491455078125,-0.242095947265625,-0.065765380859375
1662982564996301600,2.173301513671875,-0.889495849609375,-0.2815399169921875,0.063201904296875
1662982565006257400,2.18325732421875,-0.9064483642578125,-0.28131103515625,0.0776519775390625
1662982565016213800,2.1932138671875,-0.942291259765625,-0.283966064453125,0.0588226318359375
1662982565026169600,2.203169677734375,-0.979339599609375,-0.2896728515625,0.0546722412109375
1662982565036125700,2.213125732421875,-0.995361328125,-0.2422027587890625,0.053619384765625
1662982565046081500,2.22308154296875,-0.995574951171875,-0.2259674072265625,0.0346221923828125
1662982565056038700,2.23303857421875,-0.9873809814453125,-0.238800048828125,0.038330078125
1662982565065994500,2.242994384765625,-0.96917724609375,-0.224578857421875,0.0450439453125
1662982565075950600,2.25295068359375,-0.9610748291015625,-0.1784515380859375,0.045654296875
1662982565085906400,2.262906494140625,-0.952850341796875,-0.161285400390625,0.0803985595703125
1662982565095862500,2.272862548828125,-0.9525146484375,-0.186737060546875,0.0820159912109375
1662982565105819400,2.2828193359375,-0.974365234375,-0.1946258544921875,0.009521484375
1662982565115775500,2.292775390625,-0.986114501953125,-0.168609619140625,-0.06292724609375
1662982565125731600,2.302731689453125,-1.0096893310546875,-0.119354248046875,-0.03643798828125
1662982565135687700,2.312687744140625,-1.0507659912109375,-0.1147308349609375,0.0093231201171875
1662982565145643500,2.3226435546875,-1.0589752197265625,-0.14886474609375,0.0283355712890625
1662982565155600600,2.3326005859375,-1.04241943359375,-0.1771087646484375,0.042999267578125
1662982565165556700,2.342556640625,-1.0258941650390625,-0.1846923828125,0.0594024658203125
1662982565175512600,2.3525126953125,-0.997894287109375,-0.169219970703125,0.0567779541015625
1662982565185468700,2.36246875,-0.988861083984375,-0.1570281982421875,0.0374755859375
1662982565195424500,2.372424560546875,-0.992034912109375,-0.17333984375,-0.0002593994140625
1662982565205381600,2.382381591796875,-1.0017547607421875,-0.203125,-0.0426788330078125
1662982565215337700,2.392337646484375,-1.0067291259765625,-0.21142578125,-0.059967041015625
1662982565225293600,2.40229345703125,-1.0298004150390625,-0.2228851318359375,-0.042877197265625
1662982565235249700,2.412249755859375,-1.098785400390625,-0.2102203369140625,-0.034332275390625
1662982565245205800,2.422205810546875,-1.0622406005859375,-0.1853485107421875,-0.0101318359375
1662982565255161900,2.432161865234375,-0.989898681640625,-0.2600250244140625,0.03509521484375
1662982565265118700,2.44211865234375,-1.0048980712890625,-0.311431884765625,0.0324249267578125
1662982565275074800,2.45207470703125,-1.0384979248046875,-0.324615478515625,0.052642822265625
1662982565285030700,2.46203076171875,-1.071075439453125,-0.33251953125,0.088287353515625
1662982565294986800,2.47198681640625,-1.1173858642578125,-0.335357666015625,0.06451416015625
1662982565304942600,2.481942626953125,-1.170196533203125,-0.3184661865234375,0.0278167724609375
1662982565314899700,2.491899658203125,-1.3113250732421875,-0.3280181884765625,0.0234832763671875
1662982565324855600,2.50185546875,-1.268157958984375,-0.380615234375,0.070465087890625
1662982565334811600,2.511811767578125,-1.2393341064453125,-0.3857574462890625,0.051513671875
1662982565344767500,2.521767578125,-1.172576904296875,-0.3673248291015625,0.049560546875
1662982565354723600,2.5317236328125,-1.0859527587890625,-0.33843994140625,0.0157012939453125
1662982565364680400,2.541680419921875,-0.9945831298828125,-0.3073883056640625,-0.027099609375
1662982565374636500,2.551636474609375,-0.9131011962890625,-0.2923126220703125,-0.0654754638671875
1662982565384592600,2.561592529296875,-0.8522491455078125,-0.2735137939453125,-0.1005706787109375
1662982565394548700,2.571548828125,-0.8087310791015625,-0.2553863525390625,-0.127197265625
1662982565404504600,2.581504638671875,-0.80181884765625,-0.24700927734375,-0.13043212890625
1662982565414461700,2.591461669921875,-0.8079986572265625,-0.262542724609375,-0.1291656494140625
1662982565424417800,2.601417724609375,-0.77862548828125,-0.2795562744140625,-0.1086273193359375
1662982565434373600,2.61137353515625,-0.7781219482421875,-0.3005828857421875,-0.0665740966796875
1662982565444329700,2.621329833984375,-0.786102294921875,-0.316131591796875,-0.028900146484375
1662982565454285600,2.63128564453125,-0.8068084716796875,-0.35858154296875,0.0086212158203125
1662982565464241700,2.64124169921875,-0.869110107421875,-0.4303436279296875,0.05462646484375
1662982565474198500,2.651198486328125,-0.9505462646484375,-0.498138427734375,0.109130859375
1662982565484154600,2.661154541015625,-1.019378662109375,-0.530853271484375,0.150726318359375
1662982565494110500,2.6711103515625,-1.0670928955078125,-0.5171051025390625,0.1575927734375
1662982565504066800,2.68106689453125,-1.0828399658203125,-0.4720001220703125,0.1268310546875
1662982565514022700,2.691022705078125,-1.0616607666015625,-0.4197540283203125,0.1156005859375
1662982565523979800,2.700979736328125,-1.017303466796875,-0.369232177734375,0.085418701171875
1662982565533935600,2.710935546875,-0.9630889892578125,-0.318511962890625,0.0928802490234375
1662982565543891700,2.7208916015625,-0.9231414794921875,-0.2801055908203125,0.085296630859375
1662982565553847600,2.73084765625,-0.8910675048828125,-0.2545623779296875,0.052734375
1662982565563803600,2.7408037109375,-0.8716888427734375,-0.2405548095703125,0.035400390625
1662982565573760800,2.7507607421875,-0.881072998046875,-0.2343902587890625,0.05279541015625
1662982565583716600,2.760716552734375,-0.915252685546875,-0.248046875,0.0576019287109375
1662982565593672700,2.770672607421875,-0.946624755859375,-0.268218994140625,0.0391082763671875
1662982565603628500,2.780628662109375,-0.9390869140625,-0.2660675048828125,0.0183563232421875
1662982565613584600,2.790584716796875,-0.922027587890625,-0.2251739501953125,-0.0048370361328125
1662982565623541500,2.80054150390625,-0.9190673828125,-0.1447296142578125,-0.065643310546875
1662982565633497600,2.81049755859375,-0.8988189697265625,-0.05743408203125,-0.1483306884765625
1662982565643453700,2.82045361328125,-0.85699462890625,0.0119476318359375,-0.2445068359375
1662982565653409800,2.830409912109375,-0.7948150634765625,0.0463409423828125,-0.3558502197265625
1662982565663365600,2.84036572265625,-0.7463226318359375,0.0548858642578125,-0.4516754150390625
1662982565673322800,2.85032275390625,-0.75592041015625,0.050506591796875,-0.53790283203125
1662982565683278600,2.860278564453125,-0.7982025146484375,0.0424041748046875,-0.6109466552734375
1662982565693234700,2.870234619140625,-0.8510894775390625,0.0432281494140625,-0.669677734375
1662982565703190500,2.8801904296875,-0.8853607177734375,0.0544281005859375,-0.715545654296875
1662982565713146600,2.890146728515625,-0.8939056396484375,0.0659027099609375,-0.7484588623046875
1662982565723103700,2.900103759765625,-0.8793792724609375,0.0650787353515625,-0.776458740234375
1662982565733059600,2.9100595703125,-0.8657989501953125,0.051513671875,-0.7893829345703125
1662982565743015400,2.920015380859375,-0.8819732666015625,0.012969970703125,-0.764404296875
1662982565752971800,2.9299716796875,-0.9317169189453125,-0.0490570068359375,-0.698455810546875
1662982565762927600,2.939927734375,-0.9931182861328125,-0.122100830078125,-0.6124267578125
1662982565772884500,2.949884521484375,-1.0506134033203125,-0.19134521484375,-0.5179595947265625
1662982565782840800,2.9598408203125,-1.070587158203125,-0.2439117431640625,-0.4380035400390625
1662982565792796700,2.969796630859375,-1.0549468994140625,-0.272369384765625,-0.3825531005859375
1662982565802752800,2.979752685546875,-1.0119476318359375,-0.2837677001953125,-0.3558502197265625
1662982565812708600,2.98970849609375,-0.9694976806640625,-0.271942138671875,-0.3589630126953125
1662982565822665700,2.999665771484375,-0.9370269775390625,-0.2464599609375,-0.379791259765625
1662982565832621600,3.00962158203125,-0.9232025146484375,-0.226226806640625,-0.4115447998046875
1662982565842577700,3.01957763671875,-0.92529296875,-0.2163543701171875,-0.4417266845703125
1662982565852533500,3.029533447265625,-0.92950439453125,-0.2148284912109375,-0.4700469970703125
1662982565862489600,3.039489501953125,-0.941497802734375,-0.213958740234375,-0.496551513671875
1662982565872446500,3.049446533203125,-0.959014892578125,-0.21380615234375,-0.51837158203125
1662982565882402600,3.059402587890625,-0.96807861328125,-0.2169189453125,-0.540069580078125
1662982565892358700,3.069358642578125,-0.9564666748046875,-0.2145843505859375,-0.5565185546875
1662982565902314800,3.079314697265625,-0.946380615234375,-0.2043914794921875,-0.5621795654296875
1662982565912270600,3.0892705078125,-0.9500732421875,-0.202728271484375,-0.56787109375
1662982565922226700,3.099226806640625,-0.9655303955078125,-0.214569091796875,-0.5668792724609375
1662982565932183800,3.109183837890625,-0.9839935302734375,-0.2332611083984375,-0.55084228515625
1662982565942139600,3.1191396484375,-1.002685546875,-0.2525787353515625,-0.5311431884765625
1662982565952095700,3.129095703125,-1.0323638916015625,-0.2716522216796875,-0.50738525390625
1662982565962051600,3.139051513671875,-1.07928466796875,-0.29296875,-0.492279052734375
1662982565972008700,3.1490087890625,-1.1201171875,-0.3066864013671875,-0.4938812255859375
1662982565981964500,3.158964599609375,-1.134674072265625,-0.3015289306640625,-0.4910888671875
1662982565991920600,3.168920654296875,-1.1179046630859375,-0.288421630859375,-0.489410400390625
1662982566001876500,3.17887646484375,-1.0780181884765625,-0.27557373046875,-0.4903717041015625
1662982566011832800,3.188832763671875,-1.036346435546875,-0.25897216796875,-0.48736572265625
1662982566021789400,3.19878955078125,-1.0041961669921875,-0.2377166748046875,-0.478912353515625
1662982566031745800,3.208745849609375,-0.9793548583984375,-0.21087646484375,-0.471343994140625
1662982566041701600,3.21870166015625,-0.953094482421875,-0.1848602294921875,-0.471832275390625
1662982566051657700,3.22865771484375,-0.921600341796875,-0.1688690185546875,-0.484344482421875
1662982566061613600,3.238613525390625,-0.894439697265625,-0.1651611328125,-0.4993438720703125
1662982566071570700,3.24857080078125,-0.8839874267578125,-0.17413330078125,-0.502349853515625
1662982566081526800,3.25852685546875,-0.890625,-0.19281005859375,-0.496124267578125
1662982566091482600,3.268482666015625,-0.8891143798828125,-0.1945343017578125,-0.501434326171875
1662982566101438700,3.278438720703125,-0.8729248046875,-0.164459228515625,-0.5431060791015625
1662982566111394600,3.28839453125,-0.856109619140625,-0.11663818359375,-0.5826263427734375
1662982566121351700,3.2983515625,-0.836944580078125,-0.0813140869140625,-0.5831756591796875
1662982566131307500,3.3083076171875,-0.8229522705078125,-0.072662353515625,-0.4910888671875
1662982566141263600,3.318263671875,-0.842132568359375,-0.096099853515625,-0.3477325439453125
1662982566151219700,3.3282197265625,-0.8429107666015625,-0.1334991455078125,-0.181793212890625
1662982566161175800,3.33817578125,-0.7940673828125,-0.2371673583984375,0.0442657470703125
1662982566171131600,3.348131591796875,-0.7661285400390625,-0.3710174560546875,0.15338134765625
1662982566181088800,3.3580888671875,-0.7765960693359375,-0.4659576416015625,0.1156005859375
1662982566191044600,3.368044677734375,-0.809417724609375,-0.4659881591796875,0.058380126953125
1662982566201000700,3.378000732421875,-0.8336639404296875,-0.365692138671875,0.01165771484375
1662982566210956800,3.387956787109375,-0.8821258544921875,-0.2899932861328125,0.0285186767578125
1662982566220914000,3.397913818359375,-0.96142578125,-0.28125,0.045074462890625
1662982566230869800,3.407869873046875,-1.0286712646484375,-0.3527069091796875,0.0488128662109375
1662982566240825600,3.41782568359375,-0.9994659423828125,-0.456512451171875,0.0057525634765625
1662982566250781700,3.42778173828125,-0.951690673828125,-0.4993133544921875,-0.02569580078125
1662982566260737500,3.437737548828125,-0.964019775390625,-0.447235107421875,0.088470458984375
1662982566270694700,3.447694580078125,-0.99383544921875,-0.362396240234375,0.198577880859375
1662982566280650800,3.457650634765625,-0.9965972900390625,-0.310455322265625,0.197174072265625
1662982566290606800,3.46760693359375,-0.9546356201171875,-0.294830322265625,0.1562957763671875
1662982566300563000,3.47756298828125,-0.895050048828125,-0.30548095703125,0.127593994140625
1662982566310518800,3.487518798828125,-0.8433074951171875,-0.34014892578125,0.12530517578125
1662982566320476000,3.497475830078125,-0.83984375,-0.373931884765625,0.1603546142578125
1662982566330431700,3.507431640625,-0.8758544921875,-0.358612060546875,0.1892852783203125
1662982566340387800,3.517387939453125,-0.9117889404296875,-0.3988494873046875,0.24737548828125
1662982566350343700,3.52734375,-1.0009002685546875,-0.472503662109375,0.23492431640625
1662982566360299800,3.5372998046875,-0.9935302734375,-0.3857269287109375,0.1318359375
1662982566370256600,3.547256591796875,-0.9295654296875,-0.2683868408203125,0.144622802734375
1662982566380212700,3.557212646484375,-1.086822509765625,-0.3611602783203125,0.3125
1662982566390168600,3.56716845703125,-1.8890533447265625,-0.849639892578125,0.8917083740234375
1662982566400124700,3.577124755859375,-1.297515869140625,-1.118927001953125,0.8219757080078125
1662982566410080800,3.587080810546875,-0.6490631103515625,-0.751312255859375,0.4677276611328125
1662982566420037600,3.59703759765625,-0.4526824951171875,-0.3928985595703125,0.1902313232421875
1662982566429994000,3.606993896484375,-0.444610595703125,-0.2480010986328125,-0.0196075439453125
1662982566439949800,3.61694970703125,-0.5760498046875,-0.2941436767578125,-0.1091766357421875
1662982566449906000,3.626906005859375,-0.6802215576171875,-0.3590240478515625,-0.087310791015625
1662982566459861800,3.63686181640625,-0.827423095703125,-0.41156005859375,0.043670654296875
1662982566469819000,3.64681884765625,-1.01641845703125,-0.432342529296875,0.1183319091796875
1662982566479774700,3.656774658203125,-1.157196044921875,-0.4056854248046875,0.126434326171875
1662982566489730800,3.666730712890625,-1.1444549560546875,-0.3618927001953125,0.1472320556640625
1662982566499686700,3.676686767578125,-1.048614501953125,-0.3274078369140625,0.1406097412109375
1662982566509642800,3.686642822265625,-0.9856109619140625,-0.2977752685546875,0.10711669921875
1662982566519599600,3.696599609375,-0.9884033203125,-0.2834930419921875,0.0948944091796875
1662982566529555700,3.7065556640625,-1.0065460205078125,-0.3062744140625,0.0908203125
1662982566539511800,3.71651171875,-1.0000152587890625,-0.3334808349609375,0.0751800537109375
1662982566549468000,3.726468017578125,-0.971435546875,-0.332611083984375,0.0667266845703125
1662982566559423700,3.736423828125,-0.9413604736328125,-0.30364990234375,0.0919189453125
1662982566569380900,3.746380859375,-0.899688720703125,-0.289093017578125,0.1220245361328125
1662982566579337000,3.7563369140625,-0.84698486328125,-0.3000030517578125,0.1322021484375
1662982566589292800,3.766292724609375,-0.8014068603515625,-0.3229217529296875,0.123291015625
1662982566599249000,3.776248779296875,-0.804290771484375,-0.33642578125,0.1027984619140625
1662982566609204700,3.786204833984375,-0.8492584228515625,-0.3249664306640625,0.0717010498046875
1662982566619161900,3.796161865234375,-0.897003173828125,-0.288909912109375,0.0044097900390625
1662982566629117700,3.80611767578125,-0.9482879638671875,-0.2311248779296875,-0.0699615478515625
1662982566639073800,3.81607373046875,-0.9623565673828125,-0.162384033203125,-0.0812835693359375
1662982566649029600,3.826029541015625,-0.9904632568359375,-0.1478729248046875,-0.0684814453125
1662982566658985700,3.83598583984375,-1.0072174072265625,-0.0931854248046875,-0.09649658203125
1662982566668942600,3.845942626953125,-1.0062713623046875,-0.0500640869140625,-0.1435699462890625
1662982566678898700,3.855898681640625,-1.115325927734375,-0.1414642333984375,-0.135986328125
1662982566688854800,3.865854736328125,-1.113555908203125,-0.1219024658203125,-0.2110595703125
1662982566698811000,3.875810791015625,-1.0691986083984375,-0.0518341064453125,-0.294586181640625
1662982566708766700,3.8857666015625,-1.033233642578125,-0.0329437255859375,-0.306488037109375
1662982566718723800,3.895723876953125,-1.1055755615234375,-0.014007568359375,-0.2676544189453125
1662982566728679700,3.9056796875,-1.142333984375,-0.017364501953125,-0.2562255859375
1662982566738635800,3.9156357421875,-1.020294189453125,-0.0859527587890625,-0.406707763671875
1662982566748591600,3.925591552734375,-1.061859130859375,-0.18939208984375,-0.48126220703125
1662982566758548700,3.935548828125,-1.12213134765625,-0.1680908203125,-0.5521240234375
1662982566768504800,3.9455048828125,-1.1725616455078125,-0.0300445556640625,-0.6636810302734375
1662982566778460700,3.955460693359375,-1.1800079345703125,0.0388946533203125,-0.802734375
1662982566788416800,3.965416748046875,-1.2008514404296875,0.015716552734375,-1.003326416015625
1662982566798372900,3.975372802734375,-1.177093505859375,-0.070587158203125,-1.24078369140625
1662982566808329700,3.985329833984375,-1.16094970703125,-0.2201995849609375,-1.5831146240234375
1662982566818285800,3.995285888671875,-1.127655029296875,-0.3123779296875,-1.949127197265625
1662982566828242000,4.005241943359375,-1.044891357421875,-0.337677001953125,-2.212432861328125
1662982566838197800,4.01519775390625,-0.9965362548828125,-0.324493408203125,-2.2504119873046875
1662982566848153900,4.02515380859375,-0.953033447265625,-0.28924560546875,-2.15606689453125
1662982566858110700,4.03511083984375,-0.8857879638671875,-0.2649993896484375,-2.087677001953125
1662982566868066800,4.04506689453125,-0.838592529296875,-0.286407470703125,-2.1221160888671875
1662982566878022700,4.055022705078125,-0.8444976806640625,-0.3265838623046875,-2.283721923828125
1662982566887978800,4.064978759765625,-1.01824951171875,-0.3175048828125,-2.5747833251953125
1662982566897934600,4.0749345703125,-1.19927978515625,-0.2525787353515625,-2.8581695556640625
1662982566907891700,4.0848916015625,-1.1975860595703125,-0.102386474609375,-2.9869232177734375
1662982566917847800,4.094847900390625,-1.0281829833984375,0.10101318359375,-2.898956298828125
1662982566927803600,4.1048037109375,-0.778411865234375,0.3137054443359375,-2.6806488037109375
1662982566937760000,4.114760009765625,-0.6056976318359375,0.583282470703125,-2.4749603271484375
1662982566947715800,4.1247158203125,-0.6317901611328125,0.84356689453125,-2.17388916015625
1662982566957673000,4.1346728515625,-0.8779296875,0.9787445068359375,-1.845306396484375
1662982566967628800,4.14462890625,-1.1690521240234375,1.07354736328125,-1.6571807861328125
1662982566977585000,4.1545849609375,-1.382659912109375,1.1529693603515625,-1.5506744384765625
1662982566987540700,4.164540771484375,-1.4355621337890625,1.1895294189453125,-1.3910980224609375
1662982566997496800,4.174496826171875,-1.2548980712890625,1.222412109375,-1.159271240234375
1662982567007453700,4.18445361328125,-0.8588409423828125,1.318939208984375,-0.986907958984375
1662982567017409800,4.194409912109375,-0.5061492919921875,1.43194580078125,-0.8659820556640625
1662982567027365600,4.20436572265625,-0.33514404296875,1.5818939208984375,-0.820220947265625
1662982567037321700,4.21432177734375,-0.3895111083984375,1.7824859619140625,-0.8541107177734375
1662982567047278800,4.22427880859375,-0.7343597412109375,1.94476318359375,-0.93658447265625
1662982567057234700,4.234234619140625,-1.189483642578125,2.0975341796875,-0.9615325927734375
1662982567067190800,4.244190673828125,-1.4779052734375,2.351226806640625,-0.9262847900390625
1662982567077147000,4.25414697265625,-1.5822601318359375,2.6053466796875,-0.7139739990234375
1662982567087102700,4.264102783203125,-1.6843719482421875,2.7743072509765625,-0.316009521484375
1662982567097059800,4.274059814453125,-1.8626556396484375,2.8926239013671875,0.0792694091796875
1662982567107016000,4.284015869140625,-2.2035064697265625,2.8641357421875,0.5460052490234375
1662982567116971800,4.2939716796875,-2.5892791748046875,2.6258087158203125,1.0922698974609375
1662982567126928000,4.303927978515625,-2.7256622314453125,2.3042755126953125,1.5663299560546875
1662982567136883700,4.3138837890625,-2.5738525390625,2.04254150390625,1.9063262939453125
1662982567146840800,4.3238408203125,-2.2304840087890625,1.96002197265625,2.0505828857421875
1662982567156796700,4.333796630859375,-1.849853515625,1.8594818115234375,2.133026123046875
1662982567166752800,4.343752685546875,-1.546844482421875,1.771392822265625,2.1260986328125
1662982567176708600,4.35370849609375,-1.331146240234375,1.723480224609375,2.025787353515625
1662982567186664700,4.363664794921875,-1.282470703125,1.639495849609375,1.885040283203125
1662982567196621600,4.37362158203125,-1.2949981689453125,1.5669403076171875,1.672698974609375
1662982567206577400,4.383577392578125,-1.2252960205078125,1.548736572265625,1.3043975830078125
1662982567216533200,4.393533203125,-1.0985565185546875,1.4842529296875,0.974456787109375
1662982567226489000,4.403489013671875,-0.952850341796875,1.419189453125,0.7655792236328125
1662982567236445200,4.413445068359375,-0.85980224609375,1.420501708984375,0.6090087890625
1662982567246402300,4.42340234375,-0.8689422607421875,1.4705047607421875,0.485137939453125
1662982567256358100,4.433358154296875,-0.9739532470703125,1.467926025390625,0.389495849609375
1662982567266314200,4.443314208984375,-1.1320037841796875,1.469940185546875,0.2333526611328125
1662982567276270000,4.45327001953125,-1.3554534912109375,1.4418487548828125,0.05828857421875
1662982567286226200,4.46322607421875,-1.6220245361328125,1.4082489013671875,-0.08563232421875
1662982567296183000,4.47318310546875,-1.7673492431640625,1.4219207763671875,-0.2192840576171875
1662982567306139100,4.48313916015625,-1.66064453125,1.407623291015625,-0.3119049072265625
1662982567316095200,4.49309521484375,-1.3588104248046875,1.3508148193359375,-0.3819580078125
1662982567326051300,4.50305126953125,-1.1221771240234375,1.224273681640625,-0.4805145263671875
1662982567336008200,4.51300830078125,-1.0953369140625,1.1104888916015625,-0.8011016845703125
1662982567345964300,4.52296435546875,-1.224761962890625,0.9409027099609375,-1.2305755615234375
1662982567355920100,4.532920166015625,-1.3831024169921875,0.742645263671875,-1.56719970703125
1662982567365876200,4.542876220703125,-1.4071502685546875,0.616912841796875,-1.801055908203125
1662982567375832000,4.55283203125,-1.2708740234375,0.536834716796875,-1.802215576171875
1662982567385789200,4.5627890625,-1.0630645751953125,0.4885101318359375,-1.5934600830078125
1662982567395745300,4.572745361328125,-0.91241455078125,0.4287261962890625,-1.4986572265625
1662982567405701000,4.582701171875,-1.0460968017578125,0.3113555908203125,-1.7885284423828125
1662982567415657200,4.5926572265625,-1.352447509765625,0.09002685546875,-2.341217041015625
1662982567425613000,4.602613037109375,-1.6000823974609375,-0.1899261474609375,-2.6851806640625
1662982567435570200,4.612570068359375,-1.601837158203125,-0.33831787109375,-2.544708251953125
1662982567445526000,4.622526123046875,-1.3055419921875,-0.3154296875,-2.072357177734375
1662982567455482400,4.632482421875,-0.967926025390625,-0.2499237060546875,-1.5023040771484375
1662982567465438200,4.642438232421875,-0.74493408203125,-0.188568115234375,-1.062957763671875
1662982567475395300,4.652395263671875,-0.6013031005859375,-0.0948486328125,-0.81982421875
1662982567485351200,4.66235107421875,-0.6160430908203125,-0.089111328125,-0.7204742431640625
1662982567495307300,4.672307373046875,-0.8556365966796875,-0.1405181884765625,-0.9815521240234375
1662982567505263000,4.68226318359375,-1.181640625,-0.2157745361328125,-1.51458740234375
1662982567515219200,4.69221923828125,-1.4785308837890625,-0.383514404296875,-1.9587860107421875
1662982567525176300,4.70217626953125,-1.50067138671875,-0.57147216796875,-3.0392913818359375
1662982567535132200,4.712132080078125,-1.8060760498046875,-1.0540771484375,-2.146026611328125
1662982567545088300,4.722088134765625,-1.6739654541015625,-0.405426025390625,-1.17706298828125
1662982567555044000,4.732044189453125,-1.1186676025390625,-0.2487030029296875,-0.9139862060546875
1662982567565000200,4.742000244140625,-1.003875732421875,-0.2849273681640625,-0.627471923828125
1662982567574957000,4.75195703125,-0.8802490234375,-0.036346435546875,-0.4187469482421875
1662982567584913200,4.7619130859375,-0.825103759765625,0.1190185546875,-0.3270416259765625
1662982567594869200,4.771869140625,-0.7722015380859375,0.219268798828125,-0.2203216552734375
1662982567604825300,4.781825439453125,-1.003143310546875,0.367401123046875,-0.1134490966796875
1662982567614781200,4.79178125,-1.3466796875,0.398895263671875,-0.0863494873046875
1662982567624738300,4.80173828125,-1.3423919677734375,0.4153594970703125,0.030914306640625
1662982567634694100,4.811694091796875,-1.24029541015625,0.388397216796875,0.147674560546875
1662982567644650200,4.821650146484375,-1.0656585693359375,0.3091888427734375,0.26654052734375
1662982567654606000,4.831606201171875,-0.895294189453125,0.2339324951171875,0.32611083984375
1662982567664563200,4.841563232421875,-0.785003662109375,0.1277618408203125,0.285400390625
1662982567674519300,4.851519287109375,-0.7798004150390625,-0.0294036865234375,0.009735107421875
1662982567684475100,4.86147509765625,-0.8511810302734375,-0.22674560546875,-0.2054901123046875
1662982567694431000,4.871430908203125,-0.91204833984375,-0.272125244140625,-0.2623443603515625
1662982567704387000,4.881386962890625,-0.919189453125,-0.2667083740234375,-0.166412353515625
1662982567714344200,4.89134423828125,-0.9089813232421875,-0.2130126953125,-0.045928955078125
1662982567724300000,4.901300048828125,-0.8672943115234375,-0.15460205078125,0.01953125
1662982567734256400,4.91125634765625,-0.8548431396484375,-0.10687255859375,0.067535400390625
1662982567744212200,4.921212158203125,-0.88848876953125,-0.0631866455078125,0.0986328125
1662982567754168300,4.931168212890625,-0.905609130859375,-0.02484130859375,0.1365203857421875
1662982567764125200,4.941125244140625,-0.9002227783203125,0.00335693359375,0.1847686767578125
1662982567774081300,4.951081298828125,-0.91326904296875,0.0244140625,0.200225830078125
1662982567784037000,4.961037109375,-0.9642486572265625,0.006591796875,0.141326904296875
1662982567793993200,4.9709931640625,-1.0445098876953125,0.010650634765625,0.1267242431640625
1662982567803950000,4.9809501953125,-1.123870849609375,0.0477752685546875,0.182373046875
1662982567813906200,4.99090625,-1.1613616943359375,0.0783538818359375,0.2325439453125
1662982567823862000,5.000862060546875,-1.1656036376953125,0.0832061767578125,0.2828826904296875
1662982567833818000,5.010818115234375,-1.1237945556640625,0.0424652099609375,0.2625274658203125
1662982567843774200,5.020774169921875,-1.0184326171875,-0.05645751953125,0.14239501953125
1662982567853731000,5.03073095703125,-1.0298614501953125,0.031829833984375,0.190826416015625
1662982567863687200,5.040687255859375,-1.0159454345703125,0.091156005859375,0.261810302734375
1662982567873643300,5.050643310546875,-0.988616943359375,0.0579376220703125,0.2759857177734375
1662982567883599400,5.060599365234375,-1.0401458740234375,0.0407257080078125,0.1804046630859375
1662982567893555200,5.07055517578125,-1.0754547119140625,0.0498199462890625,0.071990966796875
1662982567903512300,5.08051220703125,-1.0806121826171875,-0.0074462890625,-0.065521240234375
1662982567913468200,5.09046826171875,-1.0460205078125,-0.0901641845703125,-0.09375
1662982567923424300,5.10042431640625,-0.994140625,-0.1185760498046875,-0.06719970703125
1662982567933380000,5.110380126953125,-0.951873779296875,-0.1563262939453125,-0.0255279541015625
1662982567943337200,5.120337158203125,-0.925048828125,-0.164306640625,0.011993408203125
1662982567953293000,5.13029296875,-0.9264678955078125,-0.17230224609375,0.018890380859375
1662982567963249200,5.140249267578125,-0.9426422119140625,-0.1874847412109375,-0.0062255859375
1662982567973205000,5.150205078125,-0.955841064453125,-0.185882568359375,-0.0425872802734375
1662982567983161000,5.1601611328125,-0.96343994140625,-0.155792236328125,-0.0504913330078125
1662982567993118200,5.1701181640625,-0.9654998779296875,-0.149383544921875,-0.0613861083984375
1662982568003074000,5.180073974609375,-0.9691009521484375,-0.174835205078125,-0.089630126953125
1662982568013030400,5.190030517578125,-0.95660400390625,-0.1727447509765625,-0.0819091796875
1662982568022986200,5.199986328125,-0.9657745361328125,-0.1509857177734375,-0.0507049560546875
1662982568032943400,5.209943359375,-1.009918212890625,-0.1263427734375,-0.0149688720703125
1662982568042899200,5.219899169921875,-1.045440673828125,-0.105194091796875,-0.0005340576171875
1662982568052855300,5.229855224609375,-1.0525360107421875,-0.09539794921875,-0.0113677978515625
1662982568062811100,5.23981103515625,-1.071502685546875,-0.089508056640625,-0.01568603515625
1662982568072767200,5.249767333984375,-1.09912109375,-0.0846405029296875,0.0002288818359375
1662982568082724000,5.25972412109375,-1.08331298828125,-0.0761566162109375,0.011871337890625
1662982568092680200,5.26968017578125,-1.055511474609375,-0.081146240234375,0.02691650390625
1662982568102636000,5.279635986328125,-1.0483856201171875,-0.0871429443359375,0.042388916015625
1662982568112592100,5.289592041015625,-1.0084686279296875,-0.0926361083984375,0.0420989990234375
1662982568122548200,5.29954833984375,-0.9548797607421875,-0.100341796875,0.0289306640625
1662982568132505000,5.309505126953125,-0.9222869873046875,-0.1074676513671875,0.0035247802734375
1662982568142461200,5.319461181640625,-0.9030609130859375,-0.1220855712890625,-0.0174102783203125
1662982568152417300,5.329417236328125,-0.9142913818359375,-0.1312103271484375,-0.033538818359375
1662982568162373400,5.339373291015625,-0.9375152587890625,-0.1327667236328125,-0.032928466796875
1662982568172330200,5.349330322265625,-0.9421844482421875,-0.123992919921875,-0.02880859375
1662982568182286300,5.359286376953125,-0.934539794921875,-0.1154632568359375,-0.0179901123046875
1662982568192242200,5.3692421875,-0.932647705078125,-0.10980224609375,-0.00146484375
1662982568202198300,5.3791982421875,-0.972900390625,-0.1013031005859375,0.00848388671875
1662982568212154600,5.389154541015625,-0.9605712890625,-0.0838623046875,0.001190185546875
1662982568222111500,5.399111572265625,-0.9493408203125,-0.0893096923828125,0.0009918212890625
1662982568232067600,5.409067626953125,-1.003997802734375,-0.0832977294921875,0.0041656494140625
1662982568242023400,5.4190234375,-1.03533935546875,-0.0648956298828125,0.003692626953125
1662982568251979500,5.4289794921875,-1.0372467041015625,-0.0565032958984375,0.0057220458984375
1662982568261936600,5.4389365234375,-1.0233001708984375,-0.052001953125,0.0040130615234375
1662982568271892500,5.448892578125,-1.001617431640625,-0.0466461181640625,0.011383056640625
1662982568281848600,5.4588486328125,-0.992034912109375,-0.04449462890625,0.0224456787109375
1662982568291804700,5.4688046875,-0.9788818359375,-0.044158935546875,0.0204925537109375
1662982568301760800,5.4787607421875,-0.9754638671875,-0.0482330322265625,0.021270751953125
1662982568311717600,5.488717529296875,-0.99676513671875,-0.048675537109375,0.0289306640625
1662982568321673700,5.498673828125,-1.0077362060546875,-0.05438232421875,0.022735595703125
1662982568331629600,5.508629638671875,-1.0012054443359375,-0.0515594482421875,0.0233612060546875
1662982568341585700,5.518585693359375,-0.9987030029296875,-0.05010986328125,0.02947998046875
1662982568351541500,5.52854150390625,-1.005584716796875,-0.0626678466796875,0.01788330078125
1662982568361498600,5.53849853515625,-1.0288848876953125,-0.065521240234375,0.01031494140625
1662982568371454500,5.548454345703125,-1.0626983642578125,-0.0616607666015625,0.0341339111328125
1662982568381410600,5.55841064453125,-1.0819549560546875,-0.0460052490234375,0.0501556396484375
1662982568391366400,5.568366455078125,-1.0679779052734375,-0.0257568359375,0.04510498046875
1662982568401323500,5.578323486328125,-1.0851593017578125,-0.0252227783203125,0.0438232421875
1662982568411279600,5.588279541015625,-1.099456787109375,-0.05731201171875,0.0294342041015625
1662982568421235500,5.5982353515625,-0.9337615966796875,-0.1580352783203125,0.0858001708984375
1662982568431191600,5.608191650390625,-0.970794677734375,-0.0911102294921875,-0.0271453857421875
1662982568441147600,5.618147705078125,-1.0230255126953125,-0.0366058349609375,0.053802490234375
1662982568451104800,5.628104736328125,-1.0430450439453125,-0.05560302734375,0.1222381591796875
1662982568461060600,5.638060546875,-1.053436279296875,-0.1108551025390625,0.060333251953125
1662982568471016700,5.6480166015625,-1.06640625,-0.225006103515625,0.006103515625
1662982568480972500,5.65797265625,-1.2245025634765625,-0.117767333984375,0.0850830078125
1662982568490929700,5.6679296875,-1.2677459716796875,0.14849853515625,0.09991455078125
1662982568500885500,5.677885498046875,-1.226593017578125,0.2331085205078125,0.02032470703125
1662982568510841600,5.687841552734375,-1.180908203125,0.072601318359375,0.0364227294921875
1662982568520797400,5.69779736328125,-1.1078033447265625,-0.1340484619140625,0.069244384765625
1662982568530754600,5.707754638671875,-1.008209228515625,-0.194549560546875,0.0003509521484375
1662982568540710400,5.71771044921875,-0.9170379638671875,-0.1160430908203125,-0.142364501953125
1662982568550666500,5.72766650390625,-0.891082763671875,-0.02252197265625,-0.1916961669921875
1662982568560622300,5.737622314453125,-0.87982177734375,-0.030029296875,-0.1685028076171875
1662982568570578700,5.74757861328125,-0.8733978271484375,-0.0966339111328125,-0.085205078125
1662982568580535600,5.75753564453125,-0.8871002197265625,-0.1230010986328125,-0.0370635986328125
1662982568590491600,5.76749169921875,-0.8917083740234375,-0.120208740234375,-0.0071868896484375
1662982568600447700,5.77744775390625,-0.8924560546875,-0.1384429931640625,0.0101318359375
1662982568610403600,5.787403564453125,-0.880767822265625,-0.1615142822265625,0.002593994140625
1662982568620359700,5.797359619140625,-0.9063720703125,-0.164398193359375,0.0063018798828125
1662982568630316500,5.807316650390625,-0.907440185546875,-0.1363067626953125,0.0174713134765625
1662982568640272600,5.817272705078125,-0.91168212890625,-0.09906005859375,0.0254058837890625
1662982568650228500,5.827228515625,-1.0099945068359375,-0.0646209716796875,0.0495452880859375
1662982568660184600,5.8371845703125,-1.1865997314453125,-0.0652618408203125,0.074127197265625
1662982568670141400,5.847141357421875,-1.1918182373046875,-0.1591033935546875,0.06597900390625
1662982568680097500,5.85709765625,-1.0806121826171875,-0.174957275390625,0.0782470703125
1662982568690053400,5.867053466796875,-0.924835205078125,-0.2089385986328125,0.1104736328125
1662982568700009500,5.877009521484375,-0.80810546875,-0.351470947265625,0.1606903076171875
1662982568709965600,5.886965576171875,-0.7112579345703125,-0.4130096435546875,0.178680419921875
1662982568719922400,5.89692236328125,-0.7421875,-0.2707061767578125,0.1147613525390625
1662982568729878800,5.906878662109375,-0.8350830078125,-0.194732666015625,0.073883056640625
1662982568739834600,5.916834716796875,-0.9562530517578125,-0.1224822998046875,0.0287017822265625
1662982568749790700,5.926790771484375,-1.108734130859375,-0.0457763671875,-0.0198974609375
1662982568759747600,5.93674755859375,-1.1808319091796875,-0.020477294921875,-0.025115966796875
1662982568769703700,5.94670361328125,-1.1662139892578125,-0.0622711181640625,-0.00555419921875
1662982568779659500,5.956659423828125,-1.1346893310546875,-0.0840606689453125,0.012237548828125
1662982568789615600,5.96661572265625,-1.12005615234375,-0.0754852294921875,0.041107177734375
1662982568799571500,5.976571533203125,-1.1194610595703125,-0.0729827880859375,0.0461883544921875
1662982568809528600,5.986528564453125,-1.0862884521484375,-0.088592529296875,0.043670654296875
1662982568819484400,5.996484375,-1.0501861572265625,-0.101043701171875,0.047454833984375
1662982568829440500,6.0064404296875,-1.040557861328125,-0.0994110107421875,0.0450897216796875
1662982568839396400,6.016396240234375,-1.02276611328125,-0.1031036376953125,0.035369873046875
1662982568849353500,6.026353515625,-0.99664306640625,-0.1221160888671875,0.02252197265625
1662982568859309600,6.0363095703125,-0.9593048095703125,-0.1510162353515625,0.007171630859375
1662982568869265700,6.046265625,-0.9306640625,-0.181732177734375,0.0075836181640625
1662982568879221800,6.0562216796875,-0.9170379638671875,-0.2008056640625,0.021392822265625
1662982568889177600,6.066177490234375,-0.916839599609375,-0.205291748046875,0.031219482421875
1662982568899134700,6.076134765625,-0.9100799560546875,-0.2058563232421875,0.0481414794921875
1662982568909090600,6.086090576171875,-0.9077606201171875,-0.1931915283203125,0.04852294921875
1662982568919046700,6.096046630859375,-0.929840087890625,-0.1839599609375,0.0398101806640625
1662982568929002500,6.10600244140625,-0.9636383056640625,-0.1903839111328125,0.0369415283203125
1662982568938959600,6.115959716796875,-0.982513427734375,-0.19610595703125,0.0333404541015625
1662982568948915500,6.12591552734375,-0.990478515625,-0.1880645751953125,0.0263671875
1662982568958871600,6.13587158203125,-0.9896240234375,-0.176422119140625,0.0220794677734375
1662982568968827400,6.145827392578125,-0.9874420166015625,-0.165008544921875,0.0262603759765625
1662982568978784500,6.155784423828125,-0.9918212890625,-0.156402587890625,0.0324249267578125
1662982568988740400,6.165740234375,-0.9967041015625,-0.154754638671875,0.03411865234375
1662982568998696400,6.175696533203125,-1.0051727294921875,-0.1531524658203125,0.0399169921875
1662982569008652500,6.185652587890625,-1.006439208984375,-0.1543731689453125,0.039276123046875
1662982569018608600,6.195608642578125,-0.997222900390625,-0.158477783203125,0.035980224609375
1662982569028565800,6.205565673828125,-0.986602783203125,-0.1660919189453125,0.0352325439453125
1662982569038521600,6.215521484375,-0.9803619384765625,-0.1781158447265625,0.04339599609375
1662982569048477700,6.225477783203125,-0.9839630126953125,-0.183807373046875,0.042083740234375
1662982569058433500,6.23543359375,-0.9989166259765625,-0.18023681640625,0.03277587890625
1662982569068389600,6.2453896484375,-1.0095367431640625,-0.1763763427734375,0.03338623046875
1662982569078346500,6.255346435546875,-1.013916015625,-0.1792449951171875,0.038818359375
1662982569088302600,6.265302490234375,-1.0202484130859375,-0.1792144775390625,0.040679931640625
1662982569098258400,6.275258544921875,-1.0113372802734375,-0.1782073974609375,0.0363616943359375
1662982569108214500,6.285214599609375,-0.986572265625,-0.17315673828125,0.036773681640625
1662982569118171400,6.29517138671875,-0.964569091796875,-0.1694488525390625,0.0397491455078125
1662982569128127500,6.30512744140625,-0.951202392578125,-0.1736297607421875,0.038177490234375
1662982569138083600,6.31508349609375,-0.9493865966796875,-0.1829071044921875,0.0351409912109375
1662982569148039700,6.325039794921875,-0.9650421142578125,-0.1907958984375,0.03680419921875
1662982569157996500,6.33499658203125,-0.9819183349609375,-0.1899261474609375,0.0474395751953125
1662982569167952600,6.34495263671875,-1.002777099609375,-0.1844329833984375,0.0531158447265625
1662982569177908700,6.35490869140625,-1.0206451416015625,-0.184814453125,0.0650787353515625
1662982569187864600,6.364864501953125,-1.0228118896484375,-0.187255859375,0.0685272216796875
1662982569197820700,6.374820556640625,-1.0092315673828125,-0.1876983642578125,0.053741455078125
1662982569207777300,6.38477734375,-0.98773193359375,-0.1909942626953125,0.04022216796875
1662982569217733000,6.394733154296875,-0.9654541015625,-0.1953277587890625,0.033721923828125
1662982569227689000,6.40468896484375,-0.951995849609375,-0.1975860595703125,0.0315704345703125
1662982569237645000,6.41464501953125,-0.94647216796875,-0.2017364501953125,0.0342559814453125
1662982569247602200,6.424602294921875,-0.952484130859375,-0.2025604248046875,0.040069580078125
1662982569257558000,6.43455810546875,-0.9703216552734375,-0.2022247314453125,0.0473785400390625
1662982569267514000,6.44451416015625,-0.9911346435546875,-0.20050048828125,0.0457763671875
1662982569277470200,6.45447021484375,-1.0100860595703125,-0.1983795166015625,0.043701171875
1662982569287426300,6.46442626953125,-1.01544189453125,-0.193878173828125,0.04388427734375
1662982569297383200,6.474383056640625,-1.0056610107421875,-0.1902313232421875,0.043914794921875
1662982569307339300,6.48433935546875,-0.9857330322265625,-0.190704345703125,0.04473876953125
1662982569317295000,6.494295166015625,-0.9629669189453125,-0.1904296875,0.0463104248046875
1662982569327251200,6.504251220703125,-0.9480743408203125,-0.193267822265625,0.0441131591796875
1662982569337208000,6.5142080078125,-0.943206787109375,-0.1967926025390625,0.0433502197265625
1662982569347164200,6.5241640625,-0.9498443603515625,-0.20013427734375,0.046173095703125
1662982569357120000,6.5341201171875,-0.965667724609375,-0.203460693359375,0.0494537353515625
1662982569367076000,6.544076171875,-0.9876861572265625,-0.2036895751953125,0.0467987060546875
1662982569377032000,6.554031982421875,-1.00286865234375,-0.20196533203125,0.04766845703125
1662982569386989000,6.563989013671875,-1.009124755859375,-0.199737548828125,0.0452880859375
1662982569396945200,6.573945068359375,-1.012054443359375,-0.198944091796875,0.0458221435546875
1662982569406901200,6.5839013671875,-1.0064239501953125,-0.199798583984375,0.0482025146484375
1662982569416857300,6.593857421875,-0.99224853515625,-0.1988372802734375,0.047454833984375
1662982569426814000,6.60381396484375,-0.977081298828125,-0.198516845703125,0.0508270263671875
1662982569436770300,6.613770263671875,-0.962127685546875,-0.202545166015625,0.05401611328125
1662982569446726100,6.62372607421875,-0.95526123046875,-0.204803466796875,0.0572662353515625
1662982569456682200,6.63368212890625,-0.9587860107421875,-0.205810546875,0.05694580078125
1662982569466639000,6.64363916015625,-0.969390869140625,-0.2021331787109375,0.0507049560546875
1662982569476595200,6.65359521484375,-0.9871978759765625,-0.18890380859375,0.0425567626953125
1662982569486551000,6.663551025390625,-1.0072021484375,-0.1921234130859375,0.0545501708984375
1662982569496507100,6.673507080078125,-1.006072998046875,-0.2093048095703125,0.06231689453125
1662982569506463000,6.683462890625,-0.9873504638671875,-0.2161102294921875,0.0548095703125
1662982569516420000,6.693420166015625,-0.9774017333984375,-0.208526611328125,0.0546417236328125
1662982569526376200,6.703376220703125,-0.97674560546875,-0.2035064697265625,0.05706787109375
1662982569536332000,6.71333203125,-0.981689453125,-0.2099761962890625,0.0591583251953125
1662982569546288000,6.7232880859375,-0.9839935302734375,-0.213287353515625,0.0621490478515625
1662982569556245000,6.733244873046875,-0.9833526611328125,-0.2099761962890625,0.057952880859375
1662982569566201000,6.743201171875,-0.9824066162109375,-0.206939697265625,0.0517578125
1662982569576157200,6.7531572265625,-0.9868927001953125,-0.195526123046875,0.0523223876953125
1662982569586113300,6.76311328125,-0.989501953125,-0.196075439453125,0.05694580078125
