time,seconds_elapsed,z,y,x
1664206376914869000,0.198868896484375,0.024146014741063117,-0.35222470741868017,-0.26480931268557906
1664206376924824800,0.208824951171875,-0.17340718640387057,-0.6023252574026584,-0.3882577785041183
1664206376934781200,0.21878125,-0.3636550329715013,0.11138473773300647,-1.1063977919764816
1664206376944737000,0.228737060546875,-0.9829016145586967,0.9642226330518722,-1.3556241894744336
1664206376954692000,0.238692138671875,-1.7573031020224092,1.0591247302785516,-0.8244554851170629
1664206376964648000,0.24864794921875,-1.4781874699562787,1.1724646937325596,0.6355849913172423
1664206376974604000,0.25860400390625,-0.6934761854022741,1.7962848668456077,1.3166720891371368
1664206376984560000,0.26856005859375,0.7013701535224914,3.2134900448337196,1.3012214220270513
1664206376994516200,0.27851611328125,1.4913964956194161,3.63375923769176,0.7030164594247936
1664206377004472000,0.28847216796875,1.2896487653940916,0.37859891960322856,0.17449132837876677
1664206377014428200,0.29842822265625,1.1038356864035128,-1.2907657867252826,-0.47871188334599135
1664206377024384000,0.308384033203125,1.665769312185049,-0.26565321616381404,-1.5166162770718334
1664206377034340000,0.318340087890625,2.029682119309902,0.5539470109418034,-1.9006648403830826
1664206377044296000,0.3282958984375,1.8002549395203589,0.4361383776411414,-1.2831732857696712
1664206377054252000,0.338251953125,1.31512749004364,0.5614274298250674,-0.48592312989905473
1664206377064208100,0.3482080078125,1.1722545581132173,0.9073761257141828,-0.07605638085082173
1664206377074164200,0.358164306640625,1.21630120511055,0.873123142978549,0.09583148703128098
1664206377084120000,0.3681201171875,0.8840981259793043,0.6077051968753338,-0.32293665361404417
1664206377094076200,0.378076171875,1.1588730984926223,0.41488428494930263,-1.2974896881528197
1664206377104032000,0.388031982421875,0.9435872567802667,0.3255325153261423,-0.8020290607102215
1664206377113988000,0.397988037109375,1.4620219325751065,0.5426043636724353,0.09729878310486674
1664206377123944000,0.40794384765625,1.7973469431191682,0.8487696229666472,0.693391575858742
1664206377133900300,0.417900390625,1.8008482292383907,1.2238982361108064,1.175129967419058
1664206377143856000,0.427856201171875,1.6740595861464738,1.2964865024596453,1.7291063505858182
1664206377153812000,0.43781201171875,1.5327946739345788,1.0666595096975564,1.6258910369135438
1664206377163767000,0.44776708984375,1.374479258200526,0.7237573418974876,1.0894272218227385
1664206377173723000,0.457722900390625,1.1187193672806024,0.23079671457707882,0.4980481597177684
1664206377183679000,0.467678955078125,1.0116396332651376,-0.10788403613567352,-0.024563655631244182
1664206377193635000,0.477635009765625,0.9068301822692155,-0.3121078010857105,-0.066054772926867
1664206377203591200,0.487591064453125,1.274459379568696,-0.1437386088490486,0.49172173317521806
1664206377213547000,0.497547119140625,1.758779019793868,0.3301894012212753,1.3616682919442653
1664206377223503000,0.507503173828125,0.9348276117414236,1.0474328311800956,1.8378529949001967
1664206377233459000,0.517458984375,-0.44251288110911846,1.4419345455750823,1.575866338419914
1664206377243415000,0.5274150390625,-1.2746885121494531,1.1611059721112251,0.6034943011820316
1664206377253371000,0.537370849609375,-1.0297224024444818,0.6366586118981242,-0.38846535684019323
1664206377263327200,0.5473271484375,-0.1858148325562477,-0.09833119489252566,-0.9029800827123224
1664206377273283000,0.557282958984375,-0.045920039653778076,-0.38862668488174673,-1.2771705382235348
1664206377283239200,0.5672392578125,-0.5172995342850685,-0.023632220000028608,-0.39146746126562354
1664206377293195000,0.577195068359375,-1.3069471061974762,0.1415221018433571,1.5091510557577013
1664206377303151000,0.587151123046875,-2.3719559260785577,0.46988779476881026,2.6752228335827586
1664206377313107000,0.59710693359375,-3.1414766557633875,0.9738418175294995,3.188307380521297
1664206377323063000,0.60706298828125,-3.1080420036733147,1.2443778372988104,2.8638869180902837
1664206377333019100,0.61701904296875,-1.7415449763983486,1.2991472461014986,2.129647929666936
1664206377342975200,0.626975341796875,0.6831710644870996,1.0783198446139692,1.6056621956162154
1664206377352931000,0.63693115234375,2.4499989507019517,0.8899065199971199,1.764173426183313
1664206377362887200,0.64688720703125,2.333248886543512,1.0530752209812402,2.1484173659361896
1664206377372843000,0.656843017578125,-0.2036433347135782,1.2652876465976237,2.083785757680237
1664206377382798000,0.666798095703125,-4.728773904258013,1.2121715579599142,1.6786518823727965
1664206377392754200,0.676754150390625,-7.200126024112105,1.268373629914224,1.5951257501631975
1664206377402710000,0.6867099609375,-6.442237864553928,1.7726152374446391,1.9802941112846135
1664206377412665900,0.696665771484375,-3.8473102184355255,2.4212708688676354,2.6731270303472874
1664206377422622000,0.7066220703125,-0.9071849870562553,1.7720841993078589,2.1991151413857937
1664206377432577800,0.716577880859375,-0.5961287408500909,1.2959285763159394,0.9460425409778952
1664206377442534000,0.726533935546875,-1.4384738837271929,1.1661892667248845,-0.7442153157755732
1664206377452489700,0.73648974609375,-2.7819185367166996,1.4098457551360128,-1.7457897743612527
1664206377462446000,0.746446044921875,-3.9404046817183493,1.7754396472156047,-1.6850363227128982
1664206377472402000,0.75640185546875,-4.54475823007822,2.327324172669649,-1.0090490322500467
1664206377482358000,0.76635791015625,-3.8966865360230205,2.3293533404096958,-0.4015913803949952
1664206377492313900,0.77631396484375,-3.2496582135409113,1.693622949272394,-0.279674434992671
1664206377502270000,0.78627001953125,-2.8057734595566988,1.1882090830922125,-0.9962737218290567
1664206377512225800,0.796225830078125,-2.6987726359963418,1.0164806435555218,-2.2901541334435342
1664206377522182000,0.806181884765625,-2.55173907725513,0.8259636246576905,-3.370459306655824
1664206377532138000,0.816137939453125,-2.627487268939614,0.5263660533159971,-3.9346448030173775
1664206377542094000,0.826093994140625,-2.8827164139837027,0.6142576872587203,-3.9306192007631062
1664206377552050000,0.8360498046875,-3.3267858768850562,1.3944941644862294,-3.13813319055438
1664206377562006000,0.846006103515625,-3.686460315787792,2.300250287783146,-2.353480358189344
1664206377571961900,0.8559619140625,-3.6350060228824614,2.652474995201826,-2.0793352080121634
1664206377581918000,0.86591796875,-3.0257284621238707,2.8665619825184345,-2.0166528341278434
1664206377591873800,0.875873779296875,-2.129525472331047,3.1967683348745104,-2.28339179970175
1664206377601828900,0.885828857421875,-1.272141165754199,3.443526880954206,-2.9863956919059156
1664206377611785000,0.895784912109375,-0.48243806426227087,3.3566479311853645,-3.40174291819185
1664206377621740800,0.90574072265625,0.17183131538927554,2.8322958480402827,-3.074335256643593
1664206377631697000,0.91569677734375,0.2430272505968809,2.2286174224629995,-2.5454098742336035
1664206377641652700,0.92565283203125,-0.315683906006813,1.783820522069931,-2.3388623425111175
1664206377651608800,0.93560888671875,-0.5223369439303874,1.58021927293241,-2.0552495451562107
1664206377661565000,0.94556494140625,0.11285305671989918,1.0959776663795113,-1.708607314044982
1664206377671521000,0.95552099609375,0.7532318581849337,-0.05168225644230842,-2.2950815068431196
1664206377681476900,0.965476806640625,1.1112030003011226,-1.3192366789281367,-3.141432816621661
1664206377691433000,0.975432861328125,1.009014545458555,-2.189940485805273,-3.1095357493624087
1664206377701388800,0.985388916015625,0.24122283152341842,-2.7160744839310644,-2.1885196592219174
1664206377711345000,0.995344970703125,-0.7559083839178085,-2.6908339519515634,-1.0175166355397551
1664206377721300700,1.00530078125,-1.6029232721716165,-2.005090114367008,0.05372304155491292
1664206377731257000,1.015257080078125,-2.3139771998405454,-0.8810279247537255,0.6626365182414651
1664206377741213000,1.025212890625,-2.529056120803952,0.5608662888109683,0.8671712488368153
1664206377751169000,1.0351689453125,-2.11252932934463,1.762859274844825,0.7875600250486284
1664206377761124900,1.045124755859375,-1.6473574571818113,2.5019170617267488,0.8390566227257251
1664206377771081000,1.0550810546875,-1.4456471363574266,2.7478429563745856,0.8940683158516883
1664206377781036800,1.065036865234375,-1.5160101278722284,2.847780125159025,0.5891514491833746
1664206377790993000,1.074992919921875,-1.5706243461132048,2.889672224470973,0.18485139435157177
1664206377800948700,1.08494873046875,-1.3773282178908586,2.889617863935232,-0.012434241898357868
1664206377810904000,1.094904052734375,-0.8015753255933523,2.8299796800523995,0.12361468923091888
1664206377820860000,1.10485986328125,0.02368307340443134,2.7753149006679654,0.5888311311878264
1664206377830816000,1.11481591796875,0.6491331858068704,2.6042317732974887,1.127552296751365
1664206377840771800,1.124771728515625,0.9447288280308246,2.3867457911923524,1.2047218264758586
1664206377850728000,1.13472802734375,0.7576087580949068,2.3845626019343733,0.7314257576335221
1664206377860684000,1.14468408203125,0.22251988461911676,2.6552608265280724,-0.18611522200861944
1664206377870640000,1.15464013671875,-0.1304927583068609,3.0367846936672924,-1.3978513659596443
1664206377880596000,1.164595947265625,0.30958266652226446,3.1110061141759155,-2.55365017157346
1664206377890552000,1.174552001953125,1.0898334645360708,2.7096976423755286,-2.965400250150263
1664206377900508000,1.1845078125,1.7088421457141636,2.3905910684436558,-2.5966303583830594
1664206377910463700,1.194463623046875,2.1033844843804834,2.197909564988315,-1.8090245214313267
1664206377920419800,1.204419921875,2.422546295630932,2.0225810551330445,-1.184244417244941
1664206377930376000,1.2143759765625,2.5985288854807616,1.8660107295006512,-1.1340665740162132
1664206377940332000,1.22433203125,2.3960411505430934,1.4137351637899875,-1.0583885249584912
1664206377950288000,1.234287841796875,1.7553525524765252,0.6851745132640004,-0.9772415429703891
1664206377960244000,1.244243896484375,0.9308978710770607,0.25826281365156173,-0.9945823346760123
1664206377970199800,1.25419970703125,0.19705285040736198,0.14277327094823122,-0.8971979921795428
1664206377980156000,1.264156005859375,-0.24231530293524264,-0.0182516960054636,-0.6785105983953923
1664206377990111700,1.27411181640625,-0.24732640909552572,-0.3178761553540826,-0.4261513096991926
1664206378000067800,1.28406787109375,-0.0032341596156358716,-0.6613339112102985,-0.17677147520519793
1664206378010023000,1.29402294921875,0.44754619910120963,-0.7233692193627357,-0.18958485261425376
1664206378019979000,1.30397900390625,0.8626561094999313,-0.6758510968625545,-0.27093108350150286
1664206378029934800,1.313934814453125,0.8931190523028373,-0.7642389898896217,-0.42061855428498235
1664206378039891000,1.323890869140625,0.7029810958504676,-0.8529296652555465,-0.7303399351581931
1664206378049846800,1.3338466796875,0.46876375917494295,-0.7786170593321323,-1.1293899605073034
1664206378059803100,1.34380322265625,0.17886720537543296,-0.5686316621154547,-1.5436356552921235
1664206378069759000,1.353759033203125,-0.05849953524172306,-0.1873626465201378,-1.7593433756783603
1664206378079715000,1.363715087890625,-0.23299510140419005,0.30588498104810713,-1.5322895008914172
1664206378089671000,1.3736708984375,-0.3637017947226763,0.7932908968508243,-1.0070772937856614
1664206378099627000,1.383626953125,-0.3541390166074037,1.2085837626010179,-0.5240183211460709
1664206378109582800,1.393582763671875,0.02492752050757408,1.4876023640334606,-0.09172193282060324
1664206378119539000,1.4035390625,0.4345470167964697,1.524015739673376,0.48353188738096503
1664206378129494800,1.413494873046875,0.824651665276289,1.4622668472468852,1.018492129508406
1664206378139451100,1.423451171875,1.3035317447960375,1.2575491613000631,1.2057836835537106
1664206378149407000,1.433406982421875,1.8166046012967825,0.848883604735136,0.9361570337142795
1664206378159363000,1.443363037109375,2.1212661780297757,0.4988023390859365,0.702217710262537
1664206378169319000,1.45331884765625,2.13806183000803,0.35042671808600423,0.5601577021501958
1664206378179275000,1.46327490234375,1.9907780958980321,0.3142307845890522,0.4192350275047123
1664206378189230000,1.47322998046875,1.820380028182268,0.2841010192632675,0.2924871548146009
1664206378199186000,1.48318603515625,1.590790351307392,0.2837754405707121,0.10879428284838795
1664206378209142000,1.49314208984375,1.2109534143418073,0.28564649513959883,-0.24083134798780081
1664206378219097900,1.503097900390625,0.8601894271254539,0.2772048300087452,-0.6926565395824611
1664206378229054000,1.513053955078125,0.6168915428936481,0.22661212236881254,-1.0990056358985603
1664206378239009800,1.523009765625,0.45718554958403107,0.14702859030514956,-1.4748548184022308
1664206378248966000,1.5329658203125,0.1344236680150032,0.15652882457822562,-1.7376508915692568
1664206378258922000,1.542921875,-0.366139835524559,0.363737742818892,-1.844925271373987
1664206378268878000,1.552878173828125,-0.9190443516761064,0.6376496687620877,-1.8477784688480197
1664206378278834000,1.562833984375,-1.3068570898264646,0.7943810301750898,-1.819786300072819
1664206378288790000,1.5727900390625,-1.4657424144029616,0.8050386177897453,-1.939463649854809
1664206378298745900,1.582745849609375,-1.2219576234370468,0.7993690477207303,-2.127035701341927
1664206378308702000,1.592701904296875,-0.7073346148848533,0.7143485853001474,-2.165396996179223
1664206378318657800,1.60265771484375,-0.2718237214922905,0.5134066184997559,-2.081322290176153
1664206378328614000,1.61261376953125,-0.006488192975521087,0.4162891833111644,-2.0118055402271446
1664206378338570000,1.622570068359375,0.11693477307558059,0.4675543833851814,-1.841039808242768
1664206378348526000,1.632526123046875,0.14162790030539035,0.49107875909656284,-1.5155445561870933
1664206378358481000,1.64248095703125,0.12929331938922403,0.43464463195204733,-1.1557952984824775
1664206378368436700,1.652436767578125,0.06886778452098369,0.348409240783751,-0.8958053687773644
1664206378378392800,1.662392822265625,0.07896656920909881,0.33419863686263557,-0.7811560762904584
1664206378388349000,1.672348876953125,0.05029869312942028,0.28747487961053847,-0.7130275658294558
1664206378398305000,1.682304931640625,-0.11882336330115795,0.14273089311122894,-0.7137392212301492
1664206378408261000,1.69226123046875,-0.44658173798322676,-0.014465163204073905,-0.8450802669294178
1664206378418217000,1.702217041015625,-0.910456556072831,-0.01944236709475517,-1.0046231786318123
1664206378428173000,1.712173095703125,-1.3609423157572746,0.04995265617072582,-1.0384531136497854
1664206378438129000,1.72212890625,-1.7570424052596092,0.10263152243494987,-0.9896147023312747
1664206378448085000,1.7320849609375,-2.059669845816493,0.20833558418303727,-0.9257809664547443
1664206378458040800,1.742040771484375,-2.2154460984617472,0.4484925400406122,-0.8209205159239471
1664206378467997200,1.7519970703125,-2.2668372630029916,0.5944046935364604,-0.7458287423215806
1664206378477953000,1.761953125,-2.2985499136060477,0.5609823164060711,-0.7572571681782603
1664206378487909000,1.7719091796875,-2.265667050179839,0.5888914830729365,-0.9078228465683758
1664206378497865000,1.781864990234375,-2.157123673352599,0.6302645269468427,-1.111913632788509
1664206378507821000,1.791821044921875,-1.9815695380479097,0.591822275827825,-1.2754938371829687
1664206378517777000,1.80177685546875,-1.6754507482439278,0.5682233735755086,-1.386392252703756
1664206378527732700,1.811732666015625,-1.2119558693826198,0.6392421986505389,-1.337593296612799
1664206378537688000,1.82168798828125,-0.6648468877673148,0.6291381532654166,-1.203577624876797
1664206378547644000,1.831643798828125,-0.201426243185997,0.5832403254434466,-1.031357894691825
1664206378557600000,1.84160009765625,0.09237783944606781,0.5825912138849496,-1.032376862476021
1664206378567555800,1.851555908203125,0.23925123918950555,0.5983844108223915,-1.2175985514447092
1664206378577512000,1.861511962890625,0.33562896192669867,0.5861094511389732,-1.4429735332340001
1664206378587468000,1.871468017578125,0.3828179986029863,0.34341596254110335,-1.6768953940942883
1664206378597424000,1.881424072265625,0.39764381181299685,0.0948681949570775,-1.9256163262881338
1664206378607380000,1.8913798828125,0.42157296893298624,0.09247019390463829,-2.0803191044829785
1664206378617336000,1.901336181640625,0.33025720576047896,0.21507132217884062,-1.9925807614058255
1664206378627292000,1.9112919921875,0.4019727809280157,0.45847617391645906,-1.8593799131840467
1664206378637248000,1.921248046875,0.5099988558828831,0.4463382846161723,-1.6285032652385532
1664206378647203800,1.931203857421875,0.476736637750268,0.290827112647891,-1.4815543160408735
1664206378657160000,1.941159912109375,0.5424754765957593,0.28626345799416303,-1.3917122786827385
1664206378667116000,1.951115966796875,0.5709679961085319,0.025555589278042315,-1.1717005774922669
1664206378677072100,1.961072021484375,0.6095803430974484,-0.22472002501189708,-0.7651838695243001
1664206378687028000,1.971028076171875,0.7477800225198269,-0.5141439928635955,-0.6163216340512037
1664206378696984000,1.980984130859375,0.5196569110661745,-0.3520657174646854,-0.29181449798373504
1664206378706939000,1.99093896484375,0.2766892817020416,-0.07246727031767368,0.0811959539626725
1664206378716895000,2.00089501953125,0.19288404029011724,0.14208148929178713,0.49247605867385863
1664206378726851000,2.01085107421875,0.24600948127806185,0.2872059995412826,0.8378430091522634
1664206378736807000,2.020806884765625,0.15960720911026,0.37112902211397886,0.7088993799835444
1664206378746763000,2.030762939453125,-0.3207277453929186,0.33824469738304613,0.12214154793843626
1664206378756718800,2.04071875,-1.0015729972809553,0.2394587444603443,-0.4336851392701268
1664206378766675000,2.050675048828125,-1.6579799734830856,0.24747692348212003,-0.7278256142497063
1664206378776630800,2.060630859375,-2.0581302151590584,0.3749140936106443,-0.7828685792967677
1664206378786587000,2.0705869140625,-2.011118288615346,0.48798634603917596,-0.7239538873828947
1664206378796543000,2.08054296875,-1.500496332398057,0.6168243228763342,-0.45266748763769865
1664206378806499000,2.0904990234375,-0.7401146024584769,0.6822548264250159,-0.0076036799367517225
1664206378816455000,2.100454833984375,0.024815292304754256,0.7012438967943191,0.44170711768418547
1664206378826411000,2.110410888671875,0.7524778249472379,0.6848699773594736,0.8040288562253117
1664206378836366800,2.120366943359375,1.3685241491883993,0.4809583470985293,0.9810112707674503
1664206378846323000,2.130322998046875,1.7491501907050608,0.06672726536095142,0.7479089095965027
1664206378856278800,2.14027880859375,2.1089760207772255,-0.2404430793225765,0.5565776517063379
1664206378866235100,2.150235107421875,2.169052596077323,-0.3017255232810974,0.8213157988518476
1664206378876191000,2.16019091796875,1.4657067585676908,-0.08661942204982041,1.2251190100774167
1664206378886146000,2.17014599609375,0.5906313124775886,0.4133966767400503,1.3089371109709143
1664206378896102000,2.180101806640625,-0.10487141031622886,0.8610241243839264,1.3208693946965038
1664206378906058000,2.19005810546875,-0.7143933012247086,0.9124287329286337,1.4895019140444694
1664206378916014000,2.20001416015625,-0.9548463174194097,0.834668616899848,1.6997903858609495
1664206378925970200,2.20997021484375,-1.1707862391263246,0.8004726250484585,1.7127714479871092
1664206378935926000,2.219926025390625,-2.7539298750728367,0.08869681284576654,1.6884755033813417
1664206378945882000,2.229882080078125,-4.668527817609906,0.3436801664352417,1.0930664551079272
1664206378955838000,2.239837890625,-5.833790909400582,0.561193328808248,1.1615472861379383
1664206378965793800,2.249793701171875,-5.874032903417945,0.4553852221637964,1.5535969312056899
1664206378975750000,2.25975,-4.954647190958261,0.36751726135760543,1.9320871297374367
1664206378985705700,2.269705810546875,-3.5307390082001686,0.12508768439292908,2.006913968793303
1664206378995662000,2.279662109375,-1.9521067121982574,-0.3449251980602741,1.3804741147011517
1664206379005618000,2.289617919921875,-0.6492021593898535,-0.9416630107194185,0.12417583024501799
1664206379015574000,2.299573974609375,0.05033551800847053,-1.5757354055166244,-0.7792831220254302
1664206379025529900,2.30952978515625,-0.017100187882781028,-2.270118184369802,-1.2558663227796554
1664206379035486000,2.31948583984375,-0.9922264922648668,-2.243605440497398,-1.004872915609181
1664206379045441800,2.32944189453125,-2.213831064480543,-1.3610773403137921,-0.360487947242707
1664206379055397000,2.339397216796875,-2.8560709836423395,-0.39974399896264073,0.39399551843851804
1664206379065353000,2.34935302734375,-2.7299966262996196,0.21689152334332465,0.9793040284581482
1664206379075309000,2.35930908203125,-2.0853630899995563,0.5003618434876204,1.0899443775646387
1664206379085265000,2.369264892578125,-1.0038000256806612,0.628050065767765,0.5877439204730093
1664206379095221000,2.379220947265625,0.6180190856188535,0.7138964576184749,-0.8126096375659108
1664206379105176800,2.3891767578125,1.2109580905169248,-0.24036767599880693,-0.5399214081987739
1664206379115133000,2.3991328125,0.1964759273022413,-0.3582803541958332,0.8784919765353202
1664206379125089000,2.409089111328125,-1.445178349801898,0.7395306650906801,2.4281219038061796
1664206379135045000,2.419045166015625,-2.707070508742332,1.6888403911709784,3.4350749866902826
1664206379145001000,2.4290009765625,-3.536255141273141,2.1383879932224747,3.6855478771179913
1664206379154957000,2.43895703125,-3.725264970478415,2.2778894028931855,3.2308608663514256
1664206379164913000,2.448912841796875,-2.4937919151991603,2.103264072871208,2.06368974898234
1664206379174869000,2.458868896484375,-0.9985089335352182,1.3064672137260436,1.4355974515080452
1664206379184824800,2.468824951171875,0.5991103870093822,1.0649696569144724,2.056719179317355
1664206379194781200,2.47878125,1.6568895478978751,0.8867845885843038,3.1992174815922976
1664206379204737000,2.488737060546875,1.6414926568016408,0.7475333542823791,4.057191863016784
1664206379214693000,2.498693115234375,0.8349310672283172,0.8410258769720792,4.155930177405477
1664206379224648000,2.50864794921875,-0.05075754281282425,1.1709580885618924,3.7797318892031906
1664206379234603800,2.518603759765625,-0.8884098516985773,1.5374673419207334,3.5940140872806308
1664206379244560100,2.52856005859375,-1.4875859974205492,1.7897744620382785,3.3434199085608123
1664206379254516000,2.538515869140625,-1.1403051761448382,1.6429910786658524,2.794750545760989
1664206379264472000,2.54847216796875,-0.2819435489684343,1.3152011398017405,2.2426631912112236
1664206379274428000,2.558427978515625,0.5610866535633802,1.033825161588192,2.0588047534197567
1664206379284384000,2.568384033203125,1.1545549430325626,0.6139005443841219,1.9610662637233733
1664206379294339800,2.57833984375,1.2024112114459276,0.38120413366556166,1.8544491787835955
1664206379304296000,2.5882958984375,0.5626113789126277,0.31281331900656223,1.63522775118798
1664206379314251800,2.598251708984375,-0.08683774097561836,0.3738379888117313,1.1374418956682086
1664206379324208000,2.6082080078125,-0.34557226379215716,0.4796715221583843,0.42551440003514285
1664206379334164000,2.6181640625,-0.42224692267179487,0.4253343672931194,-0.14457535193413495
1664206379344120000,2.6281201171875,-0.2540393507376313,0.34429566798508165,-0.51044974145554
1664206379354076000,2.638075927734375,0.0997436920389533,0.19066344163119792,-0.8361470919545739
1664206379364032000,2.648031982421875,0.24044658645391462,-0.12363923915028571,-1.1427812108695505
1664206379373987800,2.65798779296875,0.08615501940846443,-0.4275894527435303,-1.1936442598834633
1664206379383944000,2.66794384765625,0.23240853368788955,-0.6431295614778995,-1.1923957941923289
1664206379393900000,2.677900146484375,0.5586430598035454,-0.7315303139865398,-1.21808889224492
1664206379403855600,2.687855712890625,0.8172190310575067,-0.7138666470021009,-1.079985366673395
1664206379413811500,2.6978115234375,0.7824768035002052,-0.9377829544156789,-0.6800885152366012
1664206379423767600,2.707767578125,0.4617161787509918,-1.3764274696588514,-0.13740034573823212
1664206379433723400,2.717723388671875,0.20968100744262336,-1.2856956438541411,-0.3226662391748279
1664206379443679500,2.727679443359375,-0.1269140230372548,-1.076567155727744,-0.9774554049167782
1664206379453635300,2.73763525390625,-0.6779474846199155,-0.9987561862945556,-1.3588871367931366
1664206379463591700,2.747591796875,-1.2864637056171893,-0.8712696240663528,-1.4766709279134869
1664206379473547500,2.757547607421875,-1.663141594029963,-0.6815905172973871,-1.3942869514763354
1664206379483503600,2.767503662109375,-1.9143068506360053,-0.5881926871538162,-1.080897878408432
1664206379493459500,2.77745947265625,-1.7136229502499103,-0.9328951823741197,-0.5689663008973002
1664206379503415600,2.78741552734375,-0.9024678954064845,-1.0130629440665244,-0.32688159184753895
1664206379513371400,2.797371337890625,-0.9498632683098316,-0.5837105733036995,0.5347410829514265
1664206379523327200,2.8073271484375,-0.9512271040089428,0.10576806689500808,1.137862751428783
1664206379533283600,2.81728369140625,-0.5707886940188706,0.721274292910099,1.3348694246068595
1664206379543239400,2.827239501953125,-0.22805428400114178,1.347849025428295,1.4622177474081515
1664206379553195500,2.837195556640625,-0.5420644115768373,1.5640747783392668,1.5454998417288064
1664206379563151400,2.8471513671875,-1.2819167098373174,1.8375135338127613,0.9813479553759098
1664206379573106400,2.8571064453125,-1.9582154043368993,2.0020143601834772,0.010732917873188853
1664206379583062500,2.8670625,-1.8979110116302966,1.821985709813237,-0.3821025438100099
1664206379593018600,2.8770185546875,-1.0064683681070803,1.4900900891959665,-0.18241057707071304
1664206379602974500,2.886974365234375,-0.21196283476948738,1.258120239186287,0.34233050539195536
1664206379612930600,2.8969306640625,0.14069909502267836,1.248311961877346,0.9583663082391023
1664206379622886400,2.906886474609375,0.2749497445583343,1.361817929548025,1.2158704124778508
1664206379632842500,2.916842529296875,0.21980836063809692,1.5475772325247525,1.1016552736245095
1664206379642798300,2.92679833984375,-0.23966098903417585,1.686578875979781,0.44777387037724253
1664206379652754400,2.93675439453125,-0.8043922096449881,1.667652641713619,-0.2719644451372325
1664206379662710500,2.94671044921875,-1.3316343882083892,1.469057822561264,-0.9347842109911143
1664206379672666600,2.95666650390625,-1.1917981205601245,1.171397064501047,-1.385138745511323
1664206379682622500,2.96662255859375,-0.14710487041175366,0.7604781760513782,-1.170032205888629
1664206379692578600,2.97657861328125,1.1816916640222073,0.5122410818517208,-0.3906504457943141
1664206379702534400,2.986534423828125,2.18610426864326,0.5576315446734428,0.2198487657137215
1664206379712490500,2.996490478515625,2.671208921766281,0.729900082436204,0.12636691054850815
1664206379722446300,3.0064462890625,2.6197972989588973,0.7085024896204472,-0.5605759275622666
1664206379732402700,3.016402587890625,2.3577637345969675,0.5445131199032068,-1.3625430289521812
1664206379742358500,3.026358642578125,2.2872551971316337,0.32776129729151726,-1.8307994231268763
1664206379752313300,3.036313232421875,2.5166473056077954,0.13812953679561615,-1.7540394240513444
1664206379762269400,3.04626953125,2.7937551049828526,0.12907879985570908,-1.5131524003535508
1664206379772225300,3.056225341796875,2.826675962331891,0.11413958939909934,-1.2517488044582306
1664206379782181400,3.066181396484375,2.5931127056509253,0.123178051379323,-0.9154320063978433
1664206379792137500,3.076137451171875,2.4976468370616436,-0.03480477139949798,-0.601798310919106
1664206379802093600,3.086093505859375,2.615541979601979,-0.26903789016604424,-0.06935045347139239
1664206379812049400,3.09604931640625,2.7039047381877896,-0.37579321453273296,0.35741453114673494
1664206379822005500,3.106005615234375,2.5327649121940135,-0.47815001167953014,0.3295094561330974
1664206379831961300,3.11596142578125,1.9874480746924876,-0.6327098742723465,0.13594707818999885
1664206379841917400,3.12591748046875,1.2064917587578297,-0.7401882522165775,-0.01638663278594613
1664206379851873300,3.135873291015625,0.3494365380048752,-0.8602467102706431,-0.10290332511365413
1664206379861829600,3.14582958984375,-0.30738479115180667,-0.9170143071532249,-0.03399389340803027
1664206379871785500,3.155785400390625,-0.7009037050545215,-0.9416717785477637,0.1424970843553543
1664206379881741600,3.165741455078125,-0.7829483665347099,-0.9733534494906664,0.2274631862401962
1664206379891697400,3.175697509765625,-0.6949100175976752,-0.9009101445704698,-0.14449147304296492
1664206379901653500,3.185653564453125,-0.7143786881774663,-0.9136959763854742,-0.9156237295776605
1664206379911609300,3.195609375,-0.49667175679802894,-0.8887783927500248,-1.2237751942530273
1664206379921564700,3.205564697265625,0.05816696055280044,-0.6737292824029922,-1.1923666411630809
1664206379931520500,3.2155205078125,0.6849556098163128,-0.43815585494339465,-0.9158141375832259
1664206379941476600,3.2254765625,1.1265689117372035,-0.20276246022582053,-0.478918657964468
1664206379951432400,3.235432373046875,1.0429366888046263,0.13456746039986608,-0.22203765406012535
1664206379961388300,3.24538818359375,0.6115034201145172,0.396660645994544,-0.11821940605863929
1664206379971344400,3.255344482421875,0.09495324289202689,0.6331652168244123,0.03491948382034898
1664206379981300500,3.265300537109375,-0.4080547311902046,0.9643430445611476,0.1192430500179529
1664206379991256600,3.275256591796875,-0.6935445744633674,1.2867898688316344,0.10234013827294111
1664206380001212400,3.28521240234375,-0.6679974607527256,1.504697875741124,0.013046674708276987
1664206380011168500,3.29516845703125,-0.5471686028480529,1.559191682472825,-0.015057430008798837
1664206380021124400,3.305124267578125,-0.3236030085682869,1.5631448040127753,0.02809402171447873
1664206380031080400,3.31508056640625,-0.24268530529141424,1.5053215605974197,0.14366934300512074
1664206380041036300,3.325036376953125,-0.3469335787406191,1.4324965628832578,0.3998869145646691
1664206380050992400,3.334992431640625,-0.4695207150220871,1.2994319082617758,0.7232876785591245
1664206380060948500,3.344948486328125,-0.4995207895535975,0.9831851076751947,1.0338086488448084
1664206380070904600,3.354904541015625,-0.5254419242084026,0.39025545512735843,1.364331958195567
1664206380080860400,3.3648603515625,-0.6194798058211803,-0.28945290168523785,1.5326017817109823
1664206380090816500,3.37481640625,-0.6982967374265193,-1.002013726785779,1.284631960145384
1664206380100771300,3.384771240234375,-1.0940379304885863,-1.6096733309537172,0.5448017275862396
1664206380110727400,3.3947275390625,-1.8151333597004413,-1.8215695302277803,-0.24217209507226942
1664206380120683500,3.40468359375,-2.6143606608629226,-1.6525661317408085,-0.8249956564083695
1664206380130639600,3.4146396484375,-3.2190462176561354,-1.3448925137102603,-0.9289254019603133
1664206380140595500,3.424595458984375,-3.5622353857040405,-0.9617840077280998,-0.5806377417296171
1664206380150551600,3.434551513671875,-3.6301673506796357,-0.6653332099795342,-0.04126023114919662
1664206380160507400,3.44450732421875,-3.3685061267614365,-0.5213789125531911,0.5971715279012918
1664206380170463500,3.45446337890625,-2.742572030234337,-0.5842401501357555,1.2355059640571475
1664206380180419300,3.46441943359375,-1.9235703535437583,-0.8485685474365949,1.71350224647969
1664206380190375700,3.474375732421875,-1.1845745259821414,-1.2628501903176308,1.9725465658977626
1664206380200331500,3.48433154296875,-0.49049226444549854,-1.6027455775171517,1.8035471129335463
1664206380210287600,3.49428759765625,0.06985489586219192,-1.9603981552034615,1.3007291084654629
1664206380220243500,3.504243408203125,0.4152010227482766,-2.2873358611524104,0.5524022657178342
1664206380230199600,3.514199462890625,0.7088111171782017,-2.479775664806366,-0.01856149260699749
1664206380240155400,3.5241552734375,0.8690740137182176,-2.3831927748858925,-0.2334856614001095
1664206380250111500,3.534111572265625,0.7128501634359359,-1.9700088641136884,-0.062224400983750816
1664206380260067600,3.544067626953125,0.049123219609260554,-1.1194424208581446,0.4797779051423072
1664206380270023700,3.554023681640625,-1.0653941659368573,0.027465514552593228,1.1671541662342846
1664206380279978500,3.563978515625,-2.2645324931919575,1.110571716660261,1.6029200573012232
1664206380289934300,3.573934326171875,-3.085622082072496,1.8200310686141252,1.8193254045628011
1664206380299890400,3.583890380859375,-3.375952935636043,2.106531550234556,1.9212331427678464
1664206380309846500,3.593846435546875,-3.282013253700733,2.1355279276162387,1.9071333057448268
1664206380319802600,3.603802734375,-2.9706781905531883,1.9563526792049406,1.9014225268825888
1664206380329758500,3.613758544921875,-2.5991549084246155,1.5870768837422131,2.0641693491928277
1664206380339714600,3.623714599609375,-2.3873043018579483,1.306889823052287,2.2090024752803146
1664206380349670400,3.63367041015625,-2.393610124003887,1.1850427280157805,2.15626384165287
1664206380359626500,3.64362646484375,-2.550097155267,1.2076117026984692,1.951089059588313
1664206380369582300,3.653582275390625,-2.8090017739534376,1.186070902019739,1.6488384895198047
1664206380379538400,3.663538330078125,-3.183351803940534,1.0675158342659472,1.1591675513945519
1664206380389494500,3.67349462890625,-3.7331145149350164,0.89643387593925,0.5592271433018148
1664206380399450600,3.68345068359375,-4.20577411250472,0.8183499347835779,0.14743030297383666
1664206380409406700,3.69340673828125,-4.4472517955720425,0.7834668374508619,-0.0642002311013639
1664206380419362800,3.70336279296875,-4.4704690050303935,0.7779454436808824,-0.028868513218313453
1664206380429318700,3.713318603515625,-4.201272124910354,0.7824497693628072,0.24692893421053885
1664206380439274800,3.723274658203125,-3.6617043524548407,0.7654828524708748,0.6406048653058707
1664206380449230600,3.733230712890625,-3.111286100161075,0.7093032846093177,1.0177185147874057
1664206380459185700,3.743185546875,-2.692766089057922,0.606626753988862,1.2542093493528663
1664206380469141800,3.753141845703125,-2.4421476526796817,0.5076286196202039,1.1844563064299523
1664206380479097600,3.76309765625,-2.386491816431284,0.3569131574958563,0.8996497692458331
1664206380489053700,3.7730537109375,-2.2785902446389197,0.05156359849870205,0.7839902768030762
1664206380499009500,3.783009521484375,-2.010517107851803,-0.21673604052066803,0.7827259559556842
1664206380508965600,3.792965576171875,-1.8797183523356913,-0.3186217130243778,0.7386290400758385
1664206380518921700,3.802921630859375,-1.907294926047325,-0.23936755904555318,0.549796321003139
1664206380528877800,3.8128779296875,-1.984373489552736,-0.05311024341881275,0.2401892506919801
1664206380538833700,3.822833740234375,-1.8197160113155841,0.11612813286781311,-0.12605316842421888
1664206380548789800,3.832789794921875,-1.1842448556363583,0.0230617266356945,-0.4211570816084742
1664206380558745600,3.84274560546875,-0.21841033040843902,-0.38910219343900676,-0.41944574764594433
1664206380568701700,3.85270166015625,1.0600267936848102,-0.8584721018135547,-0.17765812184661625
1664206380578657500,3.862657470703125,2.2289830409049984,-1.249579789856076,0.08984598288089037
1664206380588613600,3.872613525390625,2.8958664029359817,-1.4820868154823779,0.332818726811558
1664206380598569700,3.88256982421875,3.077052991169691,-1.6173410891026259,0.438781877887249
1664206380608525800,3.89252587890625,2.838776149970293,-1.7524030550211667,0.4196649433545768
1664206380618481700,3.902481689453125,2.254450659638643,-1.970813166233897,0.24860095907598734
1664206380628437800,3.912437744140625,1.527684199053049,-2.1913737334787844,-0.02689735927581787
1664206380638393600,3.9223935546875,0.8880583348471671,-2.299563474562764,-0.2722602132134139
1664206380648348700,3.9323486328125,0.29126605205442757,-2.31083539468348,-0.5606216664001346
1664206380658304800,3.9423046875,-0.22926939541194585,-2.2512965795218944,-0.8644400703072548
1664206380668260600,3.952260498046875,-0.5350830282568931,-2.0241069495260713,-1.046249466614425
1664206380678216700,3.962216796875,-0.6869722103357314,-1.6950749016463755,-1.0419950240403413
1664206380688172500,3.972172607421875,-0.9366343689024448,-1.2961995022118091,-1.0055942156210542
1664206380698128600,3.982128662109375,-1.4246025947630405,-0.8433996203660964,-0.8821613126978277
1664206380708084500,3.99208447265625,-1.6512532955765724,-0.3903817118555307,-0.770805216537416
1664206380718040800,4.002040771484375,-1.6178642361938953,-0.05775777696371078,-0.7612588050350546
1664206380727996700,4.01199658203125,-1.3533598978042602,0.22716858720779418,-0.7329941029287874
1664206380737952800,4.021952880859375,-0.8455500763982534,0.5661024358987808,-0.7539046428799628
1664206380747908600,4.03190869140625,-0.22540274657905102,0.8986649959921836,-0.9366412370346486
1664206380757864700,4.04186474609375,0.39580958212316036,1.1755997768878936,-1.1416449003159999
1664206380767820500,4.051820556640625,0.9864432326883077,1.4043150090157985,-1.284892218516767
1664206380777776600,4.061776611328125,1.5780670633345841,1.5409417400330305,-1.378277627570182
1664206380787732500,4.071732421875,2.1377268989652394,1.647473777037859,-1.4302192656010388
1664206380797688800,4.081688720703125,2.548062434569001,1.7286597758620976,-1.2477717175208032
1664206380807644700,4.091644775390625,2.553338329145312,1.907891722896695,-1.1169861137472092
1664206380817599700,4.101599853515625,2.048604846444726,2.1530682604819535,-1.1372346826583146
1664206380827555600,4.1115556640625,1.4912304914027452,2.2352917856603858,-1.0824173430606723
1664206380837511700,4.12151171875,1.096151561641693,2.133383901324868,-0.8845094832591712
1664206380847467800,4.1314677734375,0.8319318854123353,1.8590560880571603,-0.5715286987312138
1664206380857424000,4.141423828125,0.767607078083232,1.4750690456748008,-0.25355069043785333
1664206380867379700,4.151379638671875,0.7666496312279254,1.0421528449505566,0.024145284088701008
1664206380877335800,4.161335693359375,0.5962328588116914,0.6637205140858888,0.19955884187892078
1664206380887291600,4.171291748046875,0.1808684621952474,0.4238695554375648,0.23768618182986972
1664206380897247700,4.181247802734375,-0.4779829845495522,0.35227906795442104,0.1971548494771123
1664206380907203600,4.19120361328125,-1.1248632037978619,0.35730595620572564,0.08966083557233213
1664206380917159700,4.20115966796875,-1.657163980925083,0.35726679323911664,-0.07886720048785209
1664206380927115800,4.21111572265625,-2.011039670421183,0.34075872603058815,-0.384904595618695
1664206380937071600,4.221071533203125,-2.1447456916861234,0.30310441041886804,-0.7455113469354808
1664206380947027700,4.23102783203125,-2.1064063164196907,0.23734277521967886,-1.1127174965173006
1664206380956983600,4.240983642578125,-1.9731810644090175,0.1915478232502937,-1.309254798617959
1664206380966939600,4.250939697265625,-1.6550087025873361,0.228131294760108,-1.410998432302475
1664206380976895500,4.2608955078125,-1.3179063071072101,0.2054430776119232,-1.4132000339999795
1664206380986851600,4.2708515625,-1.098666613202542,0.253614695584774,-1.3208211716406046
1664206380996807700,4.2808076171875,-1.0283841395780444,0.3563625378757715,-1.3072490117534994
1664206381006762800,4.2907626953125,-1.0346766638509928,0.39189737711548805,-1.393104317563027
1664206381016718600,4.300718505859375,-1.0683841415330766,0.42654491212666035,-1.543346755348146
1664206381026674700,4.3106748046875,-1.072114706363529,0.44607203489542,-1.8456204140312968
1664206381036630500,4.320630615234375,-0.9959731314472854,0.4435106599748134,-2.3327244242779908
1664206381046586600,4.330586669921875,-0.7105740351974964,0.4353197547346353,-3.02807940916419
1664206381056542700,4.340542724609375,-0.2616181154288351,0.44241760404109953,-3.7024370525985955
1664206381066498800,4.350498779296875,0.290315217602998,0.4304202922552824,-4.0849554837331175
1664206381076454700,4.36045458984375,0.9189688022218644,0.33487960486412044,-4.075822036945819
1664206381086410800,4.37041064453125,1.438621621634811,0.20149287868142127,-3.560436227327585
1664206381096366600,4.38036669921875,1.5886241131842136,0.13199556408524513,-2.674758138680458
1664206381106322700,4.39032275390625,1.40891870341897,0.053335284346342084,-1.697152000181377
1664206381116278500,4.400278564453125,1.1418262482322752,-0.18243629603385925,-0.8519179309297352
1664206381126235000,4.41023486328125,0.9790122059047222,-0.6708826608002185,-0.2866846060156822
1664206381136190700,4.420190673828125,1.0607618299610913,-1.4091753085285423,0.32601967778857793
1664206381146146800,4.430146728515625,1.2506325137794017,-2.2164655046373603,1.105674592268467
1664206381156102700,4.4401025390625,1.2343817823328076,-2.9172897147148844,1.7979563071891664
1664206381166058800,4.450058837890625,0.7861201284386217,-3.3986832383602854,2.186501451267302
1664206381176014600,4.4600146484375,0.051001726832240815,-3.5241643059849737,2.2286311587274072
1664206381185970700,4.469970703125,-0.976806220293045,-3.371237013030052,2.1170546978145834
1664206381195925800,4.47992578125,-2.1184655875258147,-2.871495931789279,1.9520096815645693
1664206381205881600,4.489881591796875,-3.160556619286537,-2.218819958809018,1.8049205932438372
1664206381215837700,4.499837646484375,-3.942975701250136,-1.4570388834655283,1.772952798835933
1664206381225793500,4.50979345703125,-4.363617234551906,-0.7174222936570644,2.0727058530002833
1664206381235749600,4.51974951171875,-4.30802481892854,-0.07641220855116844,2.843729680724442
1664206381245705700,4.529705810546875,-3.814763455095887,0.37926702812314034,3.9760368438526985
1664206381255661800,4.539661865234375,-3.0969512853384016,0.6079466044157743,5.168913041973114
1664206381265617700,4.54961767578125,-2.3353894057035447,0.686920772409439,6.23943448779583
1664206381275573800,4.55957373046875,-1.6941548641920088,0.592508796787262,7.074670675450563
1664206381285529600,4.569529541015625,-1.1131778075054288,0.4232762657195329,7.573935955873131
1664206381295485700,4.579485595703125,-0.5417006928309798,0.2436766544163227,7.65657624515891
1664206381305441500,4.589441650390625,-0.08188684056997299,0.11483750853538513,7.314413497549295
1664206381315397600,4.599397705078125,0.21631255441159009,0.14899170707166193,6.734189597317576
1664206381325353700,4.609353759765625,0.31070670211613177,0.31081133153438567,6.024411096411943
1664206381335309800,4.619309814453125,0.1941279028713703,0.5172399130523204,5.178611429166794
1664206381345265700,4.629265625,-0.014147475557029247,0.7325257547646761,4.259556848357618
1664206381355221800,4.6392216796875,-0.4034913687974214,0.9440835158646106,3.239834154140949
1664206381365177600,4.649177490234375,-0.9400421315193176,1.1548165165781974,2.2566022847145795
1664206381375132700,4.659132568359375,-1.3035513262793421,1.3353420105546712,1.694768319915235
1664206381385088800,4.6690888671875,-1.2892089126721025,1.6121692394226788,1.4602464473351835
1664206381395044600,4.679044677734375,-1.0856041564032435,1.8401935666769742,1.313268418173492
1664206381405000200,4.689000244140625,-0.859101924149692,1.9634780010402202,1.055993957972154
1664206381414956000,4.6989560546875,-0.5554366649776696,1.9874293699920176,0.8999497751057147
1664206381424912100,4.708912109375,-0.23774141914844513,2.0131775592327115,0.8264318266913294
1664206381434868200,4.7188681640625,0.02162877122312784,1.9084014259845017,0.5501443307232111
1664206381444824300,4.72882421875,0.20984481970220803,1.7152946828544138,0.04478161020837724
1664206381454780200,4.7387802734375,0.5128288186118006,1.497387260466814,-0.44839119855798776
1664206381464736300,4.748736328125,0.8957403407171368,1.250005321791768,-0.828639346672967
1664206381474692000,4.758692138671875,1.2983157637134193,0.9954074603885411,-1.1313977201331407
1664206381484648200,4.768648193359375,1.5052736298024654,0.8120669089913368,-1.4323381574511527
1664206381494604000,4.77860400390625,1.6153960925146937,0.6322147842317819,-1.5903063671827316
1664206381504560000,4.78856005859375,1.7141782460451125,0.47456689249575135,-1.5356529859751462
1664206381514516200,4.79851611328125,1.7568816617399452,0.30402386335134507,-1.294892219005525
1664206381524472300,4.808472412109375,1.8447624820277093,0.013253449326753616,-1.0286934247229247
1664206381534428200,4.81842822265625,2.011879043854773,-0.41521161720752714,-0.8113205476034432
1664206381544384300,4.82838427734375,2.17845696876049,-0.8751607862859964,-0.6597893121168017
1664206381554340000,4.838340087890625,2.135387057840824,-1.2299065366148947,-0.6290127733200788
1664206381564295200,4.848295166015625,1.9100059385716914,-1.4023603678166865,-0.6768062056303024
1664206381574251300,4.858251220703125,1.5283824104502797,-1.4642232420116663,-0.6210802998203784
1664206381584207000,4.86820703125,1.0647308797225354,-1.452595348060131,-0.3799799256328493
1664206381594163200,4.8781630859375,0.6984083811074495,-1.4372341127991675,-0.03626666064560413
1664206381604119000,4.888119140625,0.4217608927205205,-1.4270710307031869,0.23406850278936325
1664206381614075100,4.8980751953125,0.2074865661382675,-1.4277595974892376,0.41368250794410705
1664206381624031000,4.908031005859375,0.02152326502203941,-1.4063444690167903,0.5466498396709562
1664206381633987000,4.917987060546875,-0.14936989273428916,-1.3120692715167999,0.6235369722574949
1664206381643943200,4.927943115234375,-0.330033333876729,-1.1710527811080216,0.6106042062524706
1664206381653899300,4.937899169921875,-0.4937748663127422,-1.0275491500586271,0.6750839118823408
1664206381663855000,4.947855224609375,-0.6401631128877401,-0.8766957407683134,0.8580266961336135
1664206381673811200,4.957811279296875,-0.7741986583679914,-0.7150105563402176,1.1624039029672741
1664206381683767000,4.96776708984375,-0.8699018428444862,-0.5185831443548202,1.4114002911016343
1664206381693723100,4.97772314453125,-0.9250210879981517,-0.4149333847880363,1.3996414642468094
1664206381703679000,4.987678955078125,-0.8429957157403231,-0.4480962341994047,1.1772095501720905
1664206381713635300,4.99763525390625,-0.5055108968138694,-0.519700750207901,0.8130706061411649
1664206381723591200,5.007591064453125,0.06749415808022022,-0.66077160115242,0.4211769553527236
1664206381733547300,5.01754736328125,0.7080883558616041,-0.7662076596140861,0.05960581598319113
1664206381743503000,5.027503173828125,1.2891326325654984,-0.8631284031867981,-0.2261459661617875
1664206381753458200,5.037458251953125,1.691586767269671,-0.8814636858224868,-0.41469058900810774
1664206381763414300,5.047414306640625,1.8713360161766408,-0.8361445346713066,-0.5425665889453143
1664206381773370400,5.057370361328125,1.7954805647253989,-0.7529530412435531,-0.5268877391025424
1664206381783326200,5.067326171875,1.6648530741229652,-0.5815788219720125,-0.3485612895403057
1664206381793282300,5.0772822265625,1.422175075355172,-0.4576601813584566,-0.11211480557322502
1664206381803238100,5.087238037109375,1.0466720759406685,-0.28667759175300594,0.008111848654597997
1664206381813194200,5.0971943359375,0.7265621701851487,-0.09395604854822158,0.0637688539467752
1664206381823150000,5.107150146484375,0.5112251828074454,0.12102759534716605,0.027245734322071075
1664206381833106200,5.117106201171875,0.2490086630940437,0.300392813372612,-0.25840806734114885
1664206381843062300,5.127062255859375,-0.09617898529469966,0.3915723829448223,-0.48739831701815123
1664206381853018400,5.137018310546875,-0.3155620331928134,0.5712006358206272,-0.47661629930622873
1664206381862974200,5.14697412109375,-0.4733446572244167,0.6999146940171718,-0.4530015418976545
1664206381872930300,5.156930419921875,-0.679358228200674,0.7490279767543077,-0.6207005797877907
1664206381882886100,5.16688623046875,-0.9449296112999319,0.7798901480078697,-0.7835747548047453
1664206381892842200,5.17684228515625,-1.1495663409650325,0.8176730584353208,-0.8874559119746088
1664206381902798000,5.186798095703125,-1.3486550811141729,0.7455974177837371,-1.0180630904413759
1664206381912754200,5.196754150390625,-1.5066422878071666,0.6698246761798858,-1.2548518850401043
1664206381922710300,5.206710205078125,-1.5143722975373268,0.5355190815865993,-1.3817337593734265
1664206381932665000,5.2166650390625,-1.322227677437663,0.39964813737273214,-1.2410212203472852
1664206381942621200,5.22662109375,-1.059970825713873,0.31611937481462954,-0.9984878907471895
1664206381952577000,5.236576904296875,-0.9243313521683215,0.23095979618430137,-0.8859478454992175
1664206381962533000,5.246533203125,-0.8424632162988185,0.21178397107124328,-0.950944049283862
1664206381972489200,5.2564892578125,-0.757533647032082,0.20643501125872135,-1.076370610242337
1664206381982445300,5.2664453125,-0.6230825064882636,0.15222119051218033,-1.113616345053166
1664206381992401200,5.276401123046875,-0.45951370027065275,0.16832126144170761,-1.1768047687634826
1664206382002357200,5.286357177734375,-0.3446972345232963,0.125457102227211,-1.2364317005999386
1664206382012313000,5.29631298828125,-0.18384703961461782,0.04684942945837974,-1.0659535533852875
1664206382022269200,5.306269287109375,0.06129530344009399,-0.023712884020805357,-0.790453043076396
1664206382032225000,5.31622509765625,0.3426654364347458,-0.1223240648984909,-0.6037549979448318
1664206382042181400,5.326181396484375,0.5699374840170145,-0.16209668783843517,-0.497734709854424
1664206382052137200,5.33613720703125,0.5284127567127347,-0.23595804286301134,-0.5452883420594036
1664206382062093300,5.34609326171875,0.26626287249475716,-0.3242208482056856,-0.656494216094166
1664206382072049200,5.356049072265625,-0.10873626905083655,-0.3281634483516216,-0.8045911662831902
1664206382082005200,5.366005126953125,-0.5427069472640752,-0.3083347122877836,-0.8373492342859506
1664206382091961000,5.375961181640625,-1.0809528234660626,-0.1825251433610916,-0.8254480763509869
1664206382101917200,5.385917236328125,-1.5349059670001268,-0.06594575959444046,-0.7261278704211115
1664206382111873000,5.395873046875,-1.8301538186997175,0.0883516526699066,-0.6366051281452179
1664206382121828000,5.405828125,-2.0159695280387995,0.18769640851914882,-0.5468197894103825
1664206382131784200,5.4157841796875,-2.1154361567020414,0.25197335811853405,-0.6442655797705054
1664206382141740000,5.425739990234375,-2.116070655213296,0.29764146883785725,-0.7749722730889916
1664206382151696100,5.435696044921875,-1.9566192211866378,0.3802268130660057,-0.6205760766252875
1664206382161652000,5.44565185546875,-1.6845383100628852,0.4855751932442188,-0.3910463132441044
1664206382171608300,5.4556083984375,-1.393465113699436,0.5411000965893268,-0.2457484922543168
1664206382181564200,5.465564208984375,-1.1458902828007935,0.6455483130574226,-0.1939408558666706
1664206382191520300,5.475520263671875,-0.8989818068563937,0.7081494383990764,-0.29696254666298627
1664206382201476000,5.48547607421875,-0.6806202109605074,0.605168371874094,-0.488051520229876
1664206382211432200,5.49543212890625,-0.48214404975175856,0.521638440272212,-0.5125225291416049
1664206382221388000,5.505387939453125,-0.33464521158635613,0.5263619616627693,-0.5510527508050203
1664206382231344000,5.51534423828125,-0.18668723147660493,0.48422903933227057,-0.62488897138834
1664206382241300200,5.52530029296875,-0.025955109989643094,0.4516717545986175,-0.6480494822233915
1664206382251256300,5.53525634765625,0.20868308244645595,0.46506724274456496,-0.4695043484091758
1664206382261212200,5.545212158203125,0.427699927380681,0.5017687876760959,-0.1735802048832178
1664206382271168300,5.555168212890625,0.5512333680689334,0.5524480045557022,0.1774707825809717
1664206382281124000,5.5651240234375,0.613088935740292,0.6103431441634893,0.4926562375463545
1664206382291080200,5.575080078125,0.578174274225533,0.6513192976742983,0.7042668978773057
1664206382301036000,5.5850361328125,0.3956616980850696,0.6347586234956979,0.7998363729715346
1664206382310991400,5.594991455078125,0.02015606832206249,0.646722617533803,0.6495376749545335
1664206382320947200,5.604947265625,-0.4646972403883934,0.6106055944919586,0.3835653098389506
1664206382330903300,5.6149033203125,-0.8451537705570459,0.44551907718777656,0.13239216218739747
1664206382340859100,5.624859130859375,-1.0076128619670868,0.15684826579093933,-0.016961656194925307
1664206382350815000,5.63481494140625,-0.9751619602173566,-0.19900866065025327,-0.03747895904481411
1664206382360771000,5.64477099609375,-0.7807225071787833,-0.4194938245713711,0.14655454305261373
1664206382370727200,5.65472705078125,-0.6925456265538931,-0.46361412132680413,0.3395683472022414
1664206382380683300,5.664683349609375,-0.8003016523957251,-0.4482955561637878,0.40630408813059327
1664206382390639000,5.67463916015625,-1.0618465564578772,-0.3368085271000862,0.13057605267614125
1664206382400595200,5.68459521484375,-1.431348854152858,-0.2351408812612295,-0.4207316958032548
1664206382410550500,5.694550537109375,-1.7129750077351926,-0.1084340712338686,-0.8998292174659669
1664206382420506600,5.704506591796875,-1.8770473795607685,0.08318155655562877,-1.3528415730185805
1664206382430462700,5.714462646484375,-1.896314097827673,0.18194997382164,-1.7429776395499705
1664206382440418800,5.724418701171875,-1.7266832150921225,0.17075053441524504,-2.0239285242192446
1664206382450374700,5.734374755859375,-1.3463774915710092,0.010184124884009362,-2.163058470229059
1664206382460330800,5.744330810546875,-0.8559259244620799,-0.2531564304232597,-2.219734151044488
1664206382470286600,5.75428662109375,-0.42891660969406364,-0.5225713372081517,-2.5415660582870245
1664206382480242700,5.76424267578125,-0.10054477928876876,-0.7734434560865163,-3.109104664468765
1664206382490197800,5.77419775390625,0.0955041547730565,-0.8587088331788778,-3.96048943836987
1664206382500153900,5.78415380859375,0.26187632797360416,-0.8471960900396108,-4.8410892008394
1664206382510109700,5.794109619140625,0.7181418401032685,-0.7218243280082941,-5.249481201159954
1664206382520065800,5.804065673828125,1.415666424113512,-0.6100339320838452,-5.073993701350688
1664206382530021600,5.814021728515625,2.1373311776459216,-0.587462034791708,-4.625144018435478
1664206382539977700,5.823977783203125,2.6934315672293305,-0.6216483820319175,-4.2791725261926645
1664206382549933600,5.83393359375,3.1172932316213844,-0.6756541129857301,-4.100544390270113
1664206382559890000,5.843889892578125,3.3450440026313064,-0.6179203014194965,-4.170004003204405
1664206382569845800,5.853845703125,3.37704073087275,-0.5207727633535861,-4.644589600400626
1664206382579801600,5.863801513671875,3.0644197195678946,-0.5369985064893961,-5.038017548084259
1664206382589757700,5.8737578125,2.5190888535410165,-0.4931652099817991,-5.173196418380737
1664206382599713500,5.883713623046875,1.8387679177880285,-0.31796704850792884,-5.240110146224499
1664206382609669600,5.893669677734375,1.0003326418310403,-0.09549801729321479,-4.994323952308297
1664206382619625500,5.90362548828125,0.08038841870576142,0.11257891595363616,-4.4792479392915965
1664206382629581600,5.91358154296875,-0.8720920463651418,0.3235235135912895,-3.944042161437869
1664206382639537700,5.92353759765625,-1.80758250592947,0.39865971085727214,-3.5931215223550796
1664206382649493800,5.93349365234375,-2.59010124887526,0.34343116011023517,-3.089696199643612
1664206382659449600,5.94344970703125,-3.0241660351127386,0.2428793665587902,-2.654309809413552
1664206382669405700,5.95340576171875,-3.026493016755581,0.04490530965328216,-2.436700785450637
1664206382679361500,5.963361572265625,-2.8442379225075243,-0.3047913405925035,-2.216523664565384
1664206382689316900,5.97331689453125,-2.504379944708943,-0.5892851585656405,-1.937789725293219
1664206382699272700,5.983272705078125,-2.10238436742723,-0.7735211974978446,-1.7483970342501998
1664206382709228800,5.993228759765625,-1.8777409147828816,-0.9228098416894673,-1.6316028386890886
1664206382719184600,6.0031845703125,-1.717435202014446,-0.935817207300663,-1.5202029033869504
1664206382729140700,6.013140625,-1.5193912947431205,-0.8188713283091783,-1.2794199245855211
1664206382739096600,6.0230966796875,-1.1860957442000508,-0.718487877061963,-0.862951293054223
1664206382749052700,6.033052734375,-0.38886780016124245,-0.8157821301221847,-0.7676157728463411
1664206382759008800,6.0430087890625,0.3671276775181293,-1.1244389139711857,-0.8530497845038771
1664206382768964900,6.05296484375,1.1269348224401474,-1.1978338205277919,-0.9052999039620161
1664206382778920700,6.062920654296875,1.8396967230707406,-1.1628911019623278,-0.9410852108314632
1664206382788876800,6.072876708984375,2.392356909072399,-1.0412602800250053,-0.8705154446981846
1664206382798832600,6.08283251953125,2.7707562144502997,-0.7754273233801126,-0.635746027097851
1664206382808788700,6.092788818359375,2.804513522623479,-0.24883681365847587,-0.29071240022704004
1664206382818744600,6.10274462890625,2.510572369608283,0.684112144729495,-0.09719882986173033
1664206382828700700,6.11270068359375,2.420779870480299,1.5509528464376925,0.11812369059920311
1664206382838656800,6.12265673828125,2.935610676564276,2.162951941114664,0.3763337511502206
1664206382848612900,6.13261279296875,3.729963357427716,2.8514555988013743,0.6048506111618132
1664206382858568700,6.142568603515625,4.2530303691983224,2.9708342578977343,0.39836262760683894
1664206382868523500,6.1525234375,4.183858048772811,2.5773849751651285,0.00214252845402807
1664206382878479600,6.162479736328125,3.890475406423211,2.9661072293758393,-0.26702563702818005
1664206382888435700,6.172435791015625,2.9307611907064914,4.121347524324059,-0.7404619545914233
1664206382898391800,6.182391845703125,1.4703765039443968,5.464008333459496,-1.0465677387833594
1664206382908347600,6.19234765625,0.029722353568673133,6.460038309660553,-0.8963988046258687
1664206382918303700,6.2023037109375,-0.47331017043292517,6.445918598893284,-0.3369650328360498
1664206382928259600,6.212259521484375,0.37867724553644655,6.070198449596762,0.06291910524964332
1664206382938215700,6.222215576171875,1.3600339687407017,5.589873431965708,-1.3090404252149164
1664206382948171500,6.232171630859375,1.6640958260148764,4.586933237984776,-2.538836633323133
1664206382958127600,6.242127685546875,1.4161205976217985,4.467887171843648,-1.9879425802111625
1664206382968083700,6.252083740234375,0.6835960119009018,5.038780933672189,-0.8267740642577409
1664206382978039800,6.262039794921875,-0.11740122154355048,5.684756532230973,0.42975598312765356
1664206382987995600,6.27199560546875,-0.8404957156181335,6.101411333984136,1.6299924808830022
1664206382997951700,6.28195166015625,-0.7193313421487808,5.242986578443646,1.9964619867533444
1664206383007907600,6.291907470703125,1.3108242398917673,2.881467875227332,-0.09427870463132858
1664206383017863700,6.30186376953125,3.38629137429893,0.7991267633974551,-3.882195069333911
1664206383027819500,6.311819580078125,3.9144951644361017,-0.6895680720478296,-7.5034911312937735
1664206383037776000,6.32177587890625,2.329505608361959,-0.9786275905013084,-10.259558602917194
1664206383047730700,6.331730712890625,-1.3462047653526068,-0.32066812416017054,-11.31303539043665
1664206383057686500,6.3416865234375,-5.470381375622749,0.4466574335679412,-10.696544829559326
1664206383067642600,6.351642578125,-8.776950978431104,0.8057318607509135,-8.490448158723115
1664206383077598500,6.361598388671875,-10.8749619530797,0.5482011607661843,-5.405304800078272
1664206383087554800,6.371554931640625,-11.353375584131479,0.10234247636049985,-2.26208451551795
1664206383097510700,6.3815107421875,-10.268960052990913,-0.4438876765936613,0.7979179721295833
1664206383107466800,6.391466796875,-7.535114934569597,-0.7315370359882712,3.4028403580397364
1664206383117422600,6.401422607421875,-3.2502532568246125,-0.6955629285484553,5.575238757413626
1664206383127378700,6.411378662109375,1.2073089203596115,-0.4796370353668928,6.882266527631878
1664206383137334500,6.42133447265625,4.2571746293962,-0.3703253045156598,6.960923300239443
1664206383147290600,6.43129052734375,5.501985889676213,-0.08885697184354066,5.953316283491254
1664206383157246500,6.44124658203125,5.265847814071178,0.5277329577550292,4.481433466637134
1664206383167202800,6.451202880859375,4.248413815313578,1.1589198602437973,2.895095418563485
1664206383177158700,6.46115869140625,2.9880951893001795,1.4447329441219567,-0.1378834530800581
1664206383187114800,6.47111474609375,1.4600374807596206,1.1387918489724398,-2.1545681436508892
1664206383197070600,6.481070556640625,0.24311317531466484,1.3441679988279938,-2.650188345569372
1664206383207026700,6.491026611328125,-0.22761866906285286,1.493752411095798,-2.4818542246460913
1664206383216982500,6.500982421875,-0.3032271600157022,1.4903160069063306,-1.2317992184936999
1664206383226938600,6.510938720703125,-0.22631927690207956,1.756665973162651,-0.16074819583892822
1664206383236893700,6.520893798828125,-0.041838907819986344,2.1728914435878393,0.3447036642640829
1664206383246849800,6.530849853515625,0.1180979716360569,2.526571318250894,0.8160375661879777
1664206383256805600,6.5408056640625,0.5162731138467789,2.7549729543849826,1.6479022315829992
1664206383266761700,6.55076171875,1.7085218277186154,2.72593916760236,2.768701912268996
1664206383276717600,6.560717529296875,3.755463417126238,2.779739146851003,3.0006103874802585
1664206383286673700,6.570673583984375,5.24730561068654,2.865255576094985,2.3329016805410383
1664206383296629800,6.580629638671875,5.23374762545526,3.1559491254910825,1.367379655328393
1664206383306585900,6.5905859375,3.63664969843626,3.879747383920848,0.1900812578290701
1664206383316541700,6.600541748046875,0.8367214577764273,4.41329458091259,-0.6693728407591581
1664206383326497800,6.610497802734375,-1.9445254632890223,4.481116948033869,-1.097498300075531
1664206383336453600,6.62045361328125,-3.8925253246903417,4.56058328345865,-1.3779174159556626
1664206383346409500,6.630409423828125,-4.8339419594332576,4.988271812662482,-2.236585917124152
1664206383356365600,6.640365478515625,-4.796465630736947,5.174137498623132,-5.299013586091995
1664206383366321700,6.65032177734375,-4.51139196704924,4.433011965556442,-8.166484500148892
1664206383376277800,6.66027783203125,-3.8471927295356987,3.9384585160866377,-8.054659032911061
1664206383386233600,6.670233642578125,-2.321876720918715,4.197252075614035,-6.4103334907710545
1664206383396189700,6.680189697265625,-0.4285290716812014,4.820011633758247,-4.365256818452477
1664206383406146300,6.690146240234375,1.2504286617703735,5.454473612394929,-2.4512597644180056
1664206383416102100,6.70010205078125,2.429709026867151,5.853934118241072,-1.1064718801259994
1664206383426057200,6.71005712890625,2.898577415460348,6.05714724484384,-0.5321399605423212
1664206383436013300,6.720013427734375,2.5458827524423597,6.0947279106974594,-0.837038853162527
1664206383445969200,6.72996923828125,1.6042822855651377,6.277147255596518,-1.8589760085582732
1664206383455925200,6.73992529296875,0.4360544987499714,6.368962784984707,-2.884423802423477
1664206383465881000,6.749881103515625,-0.6794131732583045,6.163654147407412,-3.814845288160443
1664206383475837200,6.759837158203125,-1.6458803703665732,5.876132506045699,-4.495049319535494
1664206383485793000,6.76979296875,-2.348952651631832,5.715032428029179,-4.553444225358962
1664206383495749000,6.7797490234375,-2.7125626764178277,5.601854377138614,-4.121432864519954
1664206383505705200,6.789705322265625,-2.8937340670824048,5.549799195730686,-3.2749832089334725
1664206383515661300,6.799661376953125,-2.9145757795810696,5.527383950304984,-2.3477111271381377
1664206383525617200,6.8096171875,-2.860402583105862,5.319411061954498,-1.3597335244894027
1664206383535573200,6.8195732421875,-2.752992886483669,5.017956756830215,-0.43172436059117314
1664206383545529000,6.829529052734375,-2.7208222629800436,4.552008639597893,0.23152269076406953
1664206383555485200,6.839485107421875,-2.620620890301466,4.052725531257689,0.8833312332600355
1664206383565441000,6.84944091796875,-2.4632407095909117,3.5265257744193077,1.416093709614873
1664206383575397400,6.8593974609375,-2.4882895183905958,2.966623946726322,1.9403899709194898
1664206383585353200,6.869353271484375,-2.722548356120288,2.5856922002613545,2.315024663066864
1664206383595309300,6.879309326171875,-3.197017925721407,2.19951320079267,2.3889070608794687
1664206383605264100,6.88926416015625,-3.7497163979068397,1.8733286512985825,2.200301136299968
1664206383615220200,6.89922021484375,-4.175761251556873,1.6989076116770505,1.6679349657863378
1664206383625176000,6.909176025390625,-4.517278687000275,1.5894184784322976,0.9048808017671107
1664206383635132400,6.91913232421875,-4.8657165693566204,1.3852286157518625,0.3133195149630308
1664206383645088300,6.929088134765625,-5.199248559004068,1.1557546742111444,0.09816928232908248
1664206383655044400,6.93904443359375,-5.429560704934596,0.93449852591753,0.021093056911230087
1664206383665000200,6.949000244140625,-5.435174453163147,0.7303630237728357,-0.2049421423524618
1664206383674956300,6.958956298828125,-5.3303275927662845,0.603594254425168,-0.6970604736298323
1664206383684912000,6.968912109375,-5.337039073103666,0.49945408099293703,-1.4712655617386101
1664206383694868200,6.9788681640625,-5.526784230846166,0.35010230843722817,-2.465653615951538
1664206383704824300,6.98882421875,-5.74399373409748,0.08358955283463,-3.1773195380389687
1664206383714780400,6.998780517578125,-5.659656577765941,-0.44168753620088097,-3.7354087633520363
1664206383724736300,7.008736328125,-5.310375522583723,-0.9557733691364526,-4.373946320864558
1664206383734692400,7.0186923828125,-4.319827192664146,-1.3137240529865026,-5.016471486708522
1664206383744648200,7.028648193359375,-1.4702300812110305,-1.4657108502209186,-5.817258292272687
1664206383754604000,7.03860400390625,-2.482011168773472,-1.6809212886095046,-6.636458706405758
1664206383764560100,7.04856005859375,-3.6887855438649653,-2.7098253604084253,-6.8014557918608185
1664206383774516200,7.05851611328125,-3.572504558522999,-2.8158184682309626,-6.91105832235217
1664206383784471300,7.06847119140625,-2.8309830118760466,-2.310122862499952,-8.014010211658478
1664206383794427100,7.07842724609375,-2.5410209916248916,-1.9611726467072963,-9.146459413605928
1664206383804383200,7.08838330078125,-2.653135504937172,-2.1415502566456794,-9.853636207580566
1664206383814339000,7.098339111328125,-2.9244495233416554,-2.5744255408376455,-10.373234081935882
1664206383824295200,7.108295166015625,-3.2310289163947106,-2.966799303293228,-11.23139989427924
1664206383834251300,7.118251220703125,-3.4528885835394263,-3.5867525718450546,-12.296326296573877
1664206383844207400,7.128207275390625,-3.571294013689458,-4.1696541668534275,-12.897937268227338
1664206383854163200,7.1381630859375,-3.430007474167645,-4.254586366468668,-13.282823889797925
1664206383864119300,7.148119384765625,-3.2827851148560643,-4.310376058229804,-13.209225569623708
1664206383874075100,7.1580751953125,-3.3208696385785936,-4.9615246755123135,-12.633148852199316
1664206383884031200,7.16803125,-3.174583098812401,-5.677307385268807,-12.028387307560443
1664206383893987000,7.177987060546875,-2.6664658188924193,-6.03193155504465,-11.827713928568363
1664206383903943400,7.187943359375,-2.051488000665605,-6.133748838487267,-12.265669292503595
1664206383913899300,7.197899169921875,-1.610660296164453,-6.166934484252334,-13.722138851648568
1664206383923855400,7.20785546875,-1.273198565852642,-6.149219379341602,-15.283863267469405
1664206383933811200,7.217811279296875,-0.9332873965620994,-6.173544842302799,-16.057629964160917
1664206383943767300,7.227767333984375,-0.5666100931599736,-5.773631331992149,-15.83287662140131
1664206383953723100,7.23772314453125,-0.4211246406435966,-4.992324302923679,-15.228879631394147
1664206383963679200,7.24767919921875,-0.5858759346440434,-4.09644981443286,-14.428634093099832
1664206383973634300,7.25763427734375,-0.7345232121922075,-3.1419805136322974,-13.689006981897354
1664206383983590100,7.267590087890625,-0.7875868399903178,-2.018926916539669,-13.49064947863221
1664206383993546200,7.277546142578125,-0.7568658307731151,-0.8135504255473613,-13.74199856737256
1664206384003502000,7.287502197265625,-0.7396564834274351,0.26740824313759803,-14.084895474475621
1664206384013458200,7.297458251953125,-0.8300982402443885,1.35641870085299,-14.249271213161945
1664206384023414000,7.3074140625,-1.1688076325297354,2.6629870368659496,-14.144749346935749
1664206384033370400,7.317370361328125,-1.5991533982440829,3.944045668569207,-13.770840046453475
1664206384043326200,7.327326171875,-1.9564649074077605,5.128453605812788,-13.121805644845962
1664206384053282300,7.3372822265625,-1.9553242129400372,6.186631118369102,-12.322719797980785
1664206384063238100,7.347238037109375,-2.288015075588226,7.242361237773299,-10.997671802425383
1664206384073194200,7.3571943359375,-2.841552628946304,8.060672009590268,-9.135316672822832
1664206384083150000,7.367150146484375,-3.2111388055324555,8.681459975400566,-7.197015783137083
1664206384093106200,7.377106201171875,-3.267874838232994,8.95368877056241,-5.458698536613583
1664206384103062300,7.387062255859375,-3.0441350564301013,8.887790941762924,-4.00754403501153
1664206384113018400,7.397018310546875,-2.669015795636177,8.799987570625543,-2.846097871160507
1664206384122974200,7.40697412109375,-2.2857084060810506,8.68272020459473,-1.8703186558276415
1664206384132930300,7.416930419921875,-1.9618623825371264,8.58775819387436,-0.940104675361514
1664206384142886100,7.42688623046875,-1.820499270647764,8.530638130292296,0.005453004708886146
1664206384152841200,7.43684130859375,-1.9457295783817767,8.509160457977652,0.9647849431097507
1664206384162797300,7.44679736328125,-2.166508172291517,8.551278182739019,1.771716242778301
1664206384172753400,7.45675341796875,-2.3241702386833727,8.634415315631031,2.664569337621331
1664206384182709200,7.466709228515625,-2.2871115508772433,8.590137782487274,3.5339556321591137
1664206384192665000,7.4766650390625,-2.0133928094185887,8.684438698950409,4.32506041714251
1664206384202621200,7.48662109375,-1.8060300157904623,8.842821334701776,5.375687660449743
1664206384212577000,7.496576904296875,-1.9817327657856045,8.883348575401305,6.683557726711034
1664206384222533000,7.506533203125,-2.302654864706844,8.669324716448783,8.073149798369407
1664206384232489200,7.5164892578125,-2.531266198068857,8.4574296862185,9.27421017972827
1664206384242445300,7.5264453125,-2.7124104084655642,8.616796656832099,10.024564436650275
1664206384252401200,7.536401123046875,-2.918941281314194,8.64639392271638,10.624407814109325
1664206384262357200,7.546357177734375,-3.1576386860132217,8.560893567824364,11.178766036200523
1664206384272313000,7.55631298828125,-3.491546815496683,8.99492445179224,10.847070906591414
1664206384282269200,7.566269287109375,-3.976495401275158,9.504781853377818,9.566384030809997
1664206384292225000,7.57622509765625,-4.512780206537246,9.479764316499233,8.220207322508097
1664206384302181000,7.58618115234375,-4.774872807610035,9.596727731147407,7.075802309828997
1664206384312137200,7.59613720703125,-4.810836978177726,9.938408248198032,6.682878512275218
1664206384322093300,7.60609326171875,-4.766076922214031,10.704992339909076,7.0887582375138996
1664206384332049200,7.616049072265625,-4.598608770470321,11.891606847286223,7.260373279803991
1664206384342004200,7.626004150390625,-4.401776869337261,13.079538867002725,6.993377124598622
1664206384351960000,7.6359599609375,-4.338993080905079,13.608833959507942,6.721964321994781
1664206384361916400,7.64591650390625,-4.653345738308132,13.639492132622003,6.355178589782119
1664206384371872300,7.655872314453125,-4.979834239184856,13.43779700936675,5.830829721507429
1664206384381828400,7.665828369140625,-4.325530665002763,13.431097219467162,6.176896490818262
1664206384391784200,7.6757841796875,-3.3147298206493256,13.538023808747528,6.539713319399953
1664206384401740300,7.685740234375,-2.5780568830773234,14.311451482743024,5.672977247110009
1664206384411697200,7.695697265625,-2.2663675996646284,15.11137904112935,4.588750516539812
1664206384421653200,7.7056533203125,-2.1885691974520682,15.408898344892263,3.9738364111989735
1664206384431609000,7.715609130859375,-2.186357366621494,15.193343038588761,3.3104595959842205
1664206384441565200,7.725565185546875,-2.387880932702124,14.608957927024363,2.5881594671577215
1664206384451521300,7.735521240234375,-2.7550477731868623,13.867189127618074,1.588656846410036
1664206384461477400,7.745477294921875,-2.8970857155978678,13.171764730757474,-0.1549064840734005
1664206384471433200,7.75543310546875,-2.65320418625921,12.355621366107464,-2.455408700791001
1664206384481389300,7.765389404296875,-1.8749571292832492,11.343086829829215,-4.27487278317213
1664206384491345200,7.77534521484375,-0.4985656077206134,10.256680417132378,-5.3096968926697965
1664206384501301200,7.78530126953125,1.110142677593231,9.141246647393704,-6.293382351082563
1664206384511257000,7.795257080078125,2.5712676613286134,8.272396359428763,-7.791072393888235
1664206384521212200,7.805212158203125,3.7639991902813312,7.45338474586606,-9.280349997657536
1664206384531168300,7.815168212890625,4.5292534946933385,6.863323342230916,-10.73939496024847
1664206384541124000,7.8251240234375,4.689911674161255,6.306193901860714,-12.278987039238213
1664206384551080200,7.835080078125,4.356086254525184,4.841765492665767,-13.867786508989333
1664206384561036000,7.8450361328125,3.3764734523788094,2.984259556660056,-14.938033229523896
1664206384570992000,7.8549921875,1.7498051474824547,1.3223457508593797,-16.214041007578373
1664206384580948200,7.8649482421875,-0.24571912002936006,-0.26135025827288627,-17.518164288526773
1664206384590904300,7.874904296875,-2.0599112533569333,-1.5605506958663462,-18.053662327325345
1664206384600860200,7.884860107421875,-3.016816841393709,-2.5359534791022535,-17.527330760800837
1664206384610816300,7.894816162109375,-3.127051824569702,-3.605539689901471,-16.046951918280122
1664206384620772000,7.904772216796875,-2.5168863750606776,-4.834563013941049,-14.716104296535253
1664206384630728200,7.914728271484375,-1.1470526045784353,-6.141805888214707,-13.948756819236278
1664206384640684000,7.92468408203125,0.3351791723325848,-7.361030871817469,-12.995319784092903
1664206384650640100,7.93464013671875,1.5128290136180818,-8.465278061631322,-11.339057135921715
1664206384660596200,7.94459619140625,2.1619547467708586,-9.326936392265557,-8.972230389425158
1664206384670552300,7.95455224609375,2.2501813117563723,-9.894543387508392,-6.251897663527727
1664206384680508200,7.964508056640625,1.8515230622038243,-10.274066436219215,-3.6170910114854573
1664206384690464300,7.97446435546875,1.1041010593414307,-10.525513724637031,-1.2390239090502262
1664206384700420000,7.984420166015625,0.45379006192684174,-10.770386310839653,0.7811030309289694
1664206384710375200,7.994375244140625,0.20629881765842437,-11.152450860726832,2.718800109502673
1664206384720331300,8.004331298828125,0.02648351777791977,-11.839320195209979,4.809924247246981
1664206384730287000,8.014287109375,-0.16671733337640762,-12.468908722591399,6.590795271861553
1664206384740243200,8.0242431640625,-0.357825596165657,-12.913773135262726,8.02428143030405
1664206384750199000,8.034198974609374,-0.8096519568040966,-13.506243353605269,8.91739697547555
1664206384760155100,8.044155029296874,-1.4847759084358811,-14.258070605689287,8.877136861279606
1664206384770111000,8.054111083984376,-2.374989886946976,-15.092329472744463,8.399270927238463
1664206384780067300,8.0640673828125,-3.4873885267734526,-15.909113473385572,7.926914696529507
1664206384790023200,8.074023193359375,-4.313750503098964,-16.324268976491688,7.402624864965677
1664206384799979300,8.083979248046875,-4.637688734970987,-16.43033047337532,6.301769071155786
1664206384809935000,8.09393505859375,-4.591584570921957,-16.4857945864439,4.492123202955723
1664206384819891200,8.10389111328125,-4.641913074667752,-16.486618762308357,2.7549434360295533
1664206384829847000,8.113846923828126,-4.97037141431272,-16.48801576962471,1.300440793043375
1664206384839803100,8.12380322265625,-4.844788639879226,-16.507141325855255,-0.6968208196550607
1664206384849759000,8.133759033203125,-4.05792602251023,-16.39866224643588,-3.825235164749622
1664206384859715300,8.14371533203125,-2.713776143860817,-15.765722070538997,-8.175162896645068
1664206384869671200,8.153671142578125,-1.022192883722484,-14.563304429352282,-13.230638944530487
1664206384879627300,8.163627197265624,0.19256489133834837,-13.46446640510559,-17.185519895368813
1664206384889583000,8.1735830078125,0.7571778193317353,-12.613093906164169,-20.02114196522236
1664206384899539200,8.183539306640625,0.22362813812196253,-11.932785245370864,-21.753440389847754
1664206384909494300,8.193494384765625,-0.4580570717215538,-9.017978579643367,-24.02284428846836
1664206384919450400,8.203450439453125,-0.567077418410778,-4.796781857079267,-27.22847222162485
1664206384929406200,8.21340625,0.22660277001857757,-2.2519065281137824,-31.655348753166198
1664206384939362300,8.2233623046875,2.378459024362266,-0.6678755879387259,-36.836361398255825
1664206384949318100,8.233318115234376,3.763680333590507,1.987296391262114,-40.09884226849079
1664206384959274200,8.243274169921875,2.5816929014921186,5.613515588837862,-39.64273282370567
1664206384969230000,8.25322998046875,-0.025346914963424203,9.101350105813145,-36.68169456815719
1664206384979186200,8.263186279296875,-2.2436416808545587,12.678202630412578,-33.06552885482311
1664206384989142300,8.273142333984374,-3.647106795042753,15.831766029810904,-28.89681226108074
1664206384999098000,8.28309814453125,-4.182576776790619,18.071794196343422,-24.192834944427013
1664206385009054200,8.29305419921875,-4.157598987400531,20.019456204092503,-19.7126242975831
1664206385019010000,8.303010009765625,-3.6331834836304187,21.566793198120592,-15.03729907491803
1664206385028966100,8.312966064453125,-2.7275392962753773,22.749203824067113,-10.245552289396525
1664206385038922000,8.322921875,-1.7702105143904685,24.021043961048125,-5.961112051934004
1664206385048878000,8.332878173828124,-0.4686648288451135,25.57596103494167,-1.5112801767408848
1664206385058834200,8.342834228515626,0.03830269651785493,27.23424963598251,4.450450883874296
1664206385068790300,8.352790283203126,-1.1417661886081099,27.96651060233116,10.593339306628703
1664206385078746000,8.36274609375,-2.6390534958317873,27.72333079152107,15.11294439074993
1664206385088701200,8.372701171875,-3.0018311614468693,27.078186967611312,17.087605464583635
1664206385098657000,8.382656982421874,-1.262308630786836,26.51105343509912,16.734030511599777
1664206385108613400,8.39261328125,0.5312205076098442,26.231839018833636,16.678198149740695
1664206385118569200,8.4025693359375,1.5562518296286463,26.0294003837347,17.650819193303583
1664206385128525300,8.412525390625,1.6907275200918317,26.00389184846878,18.795913941812515
1664206385138481200,8.422481201171875,0.8373939502105117,25.67281397397518,19.45600515948534
1664206385148437200,8.432437255859375,-0.3026645576968789,25.03875268509388,18.48030719269514
1664206385158393000,8.44239306640625,-1.3416285434782504,23.91871989712715,15.817073487591742
1664206385168349200,8.45234912109375,-1.9526599621668457,22.37089658088684,11.858382623076439
1664206385178305000,8.462304931640626,-1.9179636195778846,20.806260077011583,7.934284933036565
1664206385188261400,8.472261474609375,-1.2664745182946324,19.32530372686386,5.1833782051771875
1664206385198217200,8.48221728515625,-0.047993338796496386,18.101646898293495,3.716781219771504
1664206385208173300,8.49217333984375,1.4323872572898864,17.316416558301448,3.4491391678780317
1664206385218129200,8.502129150390624,2.533440327237546,16.94310931536555,4.223651129978895
1664206385228085200,8.512085205078124,3.266701702800393,17.10499382175803,4.395359695771337
1664206385238041000,8.522041015625,3.682075817093253,17.702771498858926,2.3761340885460376
1664206385247997200,8.5319970703125,3.8124364734530447,18.160906896513698,-1.8324433909416198
1664206385257953300,8.541953369140625,2.889624878197908,17.01782524139285,-7.030956036886573
1664206385267908000,8.551908203125,0.4407169376030564,14.469882633811235,-11.574094556808472
1664206385277864200,8.5618642578125,-1.6752879588976501,12.769504949581622,-15.829720203197002
1664206385287820000,8.571820068359376,-2.4016250881552694,12.528814032977818,-19.091646946680545
1664206385297776000,8.581776123046875,-2.0825892413720486,11.69509760223627,-20.665694252979755
1664206385307732200,8.591732177734375,-0.5413152006447315,8.971910655951499,-22.66494616271257
1664206385317688300,8.601688232421875,1.0592071478649974,5.817622449409962,-26.52775439453125
1664206385327644200,8.61164404296875,1.0962567755818367,3.409605614390969,-30.45545157036781
1664206385337600300,8.621600341796874,-1.2002853053331375,1.3120727786481379,-31.769756053590772
1664206385347556000,8.63155615234375,-4.411297561876475,-0.27976708171218634,-28.87407669765949
1664206385357512200,8.64151220703125,-7.097814235150814,-1.2294947409436106,-23.71549098843336
1664206385367468000,8.651468017578125,-8.657385856851935,-2.4822341638743874,-18.966148927921054
1664206385377424100,8.661424072265625,-8.870931576898693,-4.176825665917993,-15.378513728022574
1664206385387380200,8.671380126953125,-7.93530200112462,-6.1084425477951765,-12.396300582498311
1664206385397336300,8.68133642578125,-6.227302151453495,-8.01502844879031,-9.806019300881028
1664206385407291600,8.691291748046876,-4.20034799580276,-9.861998377734421,-7.826267041388154
1664206385417247700,8.701247802734375,-2.313649867582321,-11.562372554832697,-6.423605644798278
1664206385427203600,8.71120361328125,-1.2111691029191016,-13.162647358322143,-5.313958641767502
1664206385437159700,8.72115966796875,-1.5253139627903698,-14.485783967298268,-4.1268402765214445
1664206385447115800,8.73111572265625,-2.731465529808402,-15.298551133513449,-2.9574060365259647
1664206385457070600,8.741070556640626,-4.175872895237803,-15.954776323407888,-1.8084674720704554
1664206385467026700,8.751026611328125,-5.6334957160711285,-16.48860964386463,-0.8663087867885827
1664206385476982500,8.760982421875,-6.850560891291499,-17.04035388406515,0.155537767714262
1664206385486938600,8.770938720703125,-7.1700804299384355,-17.717357658094166,1.314607265561819
1664206385496894700,8.780894775390625,-6.612007571238279,-18.399992716008423,2.3882249238342044
1664206385506850800,8.790850830078124,-5.848959836959838,-18.964080889475344,3.337762613451481
1664206385516806700,8.800806640625,-5.162161814147233,-19.051962586545944,3.7439404448539015
1664206385526762800,8.8107626953125,-4.981994632089138,-18.570726883810757,3.4373429316222666
1664206385536718600,8.820718505859375,-5.700610519444942,-17.744032899051902,3.1146091071039437
1664206385546674700,8.8306748046875,-6.996768520602584,-17.045832023215294,3.1487323259800672
1664206385556630500,8.840630615234375,-8.177177743598818,-16.66447708290219,3.3383576567351816
1664206385566586600,8.850586669921874,-8.652838861072063,-16.27648080487847,3.3085195678323505
1664206385576542700,8.860542724609376,-8.119462636733054,-15.76530472190976,2.0690011532634496
1664206385586498800,8.870498779296875,-6.909295988854765,-15.16428996258378,-0.0634556963443756
1664206385596454700,8.88045458984375,-5.609761789262294,-14.230101233267783,-2.0080115547716617
1664206385606410800,8.89041064453125,-4.357229871602356,-13.042335217767953,-3.8952766692250966
1664206385616366600,8.90036669921875,-3.4443516413405537,-11.808921549814938,-6.1163569741815325
1664206385626322700,8.91032275390625,-2.71196120339334,-10.221272419142723,-9.86174235714674
1664206385636278500,8.920278564453126,-2.0024390153363347,-9.087639560368656,-14.337461537790297
1664206385646234600,8.930234619140625,-1.4926774753406642,-8.721764513260126,-18.915776000511645
1664206385656190700,8.940190673828125,-1.1993094460383056,-8.683582958903909,-22.6592996812582
1664206385666145500,8.9501455078125,-1.2519421350732445,-7.343298815771937,-24.32518239068985
1664206385676101600,8.9601015625,-1.2487988686114548,-3.3828830271601675,-26.12716751500368
1664206385686057500,8.970057373046876,-0.18257541224360466,-0.7068138058811426,-30.124095463454722
1664206385696013600,8.980013671875,2.185982688090205,0.6184145146772265,-35.22031502513885
1664206385705969700,8.9899697265625,4.300252431361377,4.002375692462921,-36.62794427326917
1664206385715925800,8.99992578125,4.532025882016122,7.67489165405035,-33.04462635204792
1664206385725881600,9.009881591796875,3.669786828884482,10.992335117572546,-28.236234721195697
1664206385735837700,9.019837646484374,2.8082953792497514,13.938746297353505,-24.960723688995838
1664206385745793500,9.02979345703125,1.8410826244711875,15.950704543924331,-22.409807034039495
1664206385755749600,9.03974951171875,0.8046712457820773,16.988951029086113,-19.450011472028493
1664206385765705500,9.04970556640625,-0.16085370204001664,17.732727076661586,-16.259853495204446
1664206385775661800,9.059661865234375,-1.3029998298764227,18.224176714897155,-12.9225140756011
1664206385785617700,9.06961767578125,-2.309668396730721,18.82598408590555,-9.534873040258883
1664206385795573800,9.07957373046875,-2.9273382305204865,19.54138276478052,-5.952140225449204
1664206385805529600,9.089529541015626,-3.0740456260472535,20.18160491437912,-1.728591971322894
1664206385815485700,9.099485595703126,-3.273221167697012,20.645935075020788,2.9306337649345395
1664206385825441500,9.109441650390625,-3.7143072308734055,21.038326957654952,7.120980591204762
1664206385835397600,9.119397705078125,-4.124196191753446,21.189821002936363,10.102712675213812
1664206385845353700,9.129353759765625,-4.5016310360133645,21.574628129529952,11.853000345516204
1664206385855309800,9.139309814453124,-4.599974505865574,22.22193936060667,13.543512469291686
1664206385865264600,9.1492646484375,-4.535479529601335,22.994148890984057,15.58507207340002
1664206385875220700,9.159220703125,-4.384298203530907,23.546026402175425,17.922679155153034
1664206385885176600,9.169176513671875,-4.724104451142251,23.711693934237957,19.808333911800382
1664206385895132700,9.179132568359375,-5.501582569572329,23.68046643680334,19.797714318108557
1664206385905088800,9.1890888671875,-6.189627962097525,23.26785243487358,17.684139279103277
1664206385915044900,9.199044921875,-6.566152413514256,22.6073052901268,14.212916289710998
1664206385925000700,9.209000732421876,-6.300461495688557,21.895834598350525,10.908158120238781
1664206385934956800,9.218956787109375,-5.688610285049677,21.1496924061656,9.146326142615079
1664206385944912600,9.22891259765625,-4.808832360357046,20.790094539630413,8.666577463567256
1664206385954868700,9.23886865234375,-3.4558328202977773,20.257924768471717,8.197651207306981
1664206385964824600,9.248824462890624,-2.157674292972684,19.382002350163457,7.500806422254443
1664206385974780700,9.25878076171875,-1.3166039923369883,18.526865530252454,6.160709910649061
1664206385984736800,9.26873681640625,-1.2181789816811681,17.53670298478007,3.3269553882330656
1664206385994692600,9.278692626953125,-1.1272960569679737,16.68507212716341,-1.2441758849859237
1664206386004648700,9.288648681640625,-1.0579778983309864,15.960495285576581,-5.594882784560323
1664206386014604500,9.2986044921875,-0.8496087041392922,15.79829864449501,-8.172908980238438
1664206386024560600,9.308560546875,-0.44713323438614605,14.508631758922338,-9.637089552152156
1664206386034516500,9.3185166015625,-0.202252464877069,12.270398074591158,-12.563026099181174
1664206386044471800,9.328471923828126,1.012084454423189,10.833851359534263,-18.044499362182616
1664206386054427600,9.338427734375,2.2714403728842734,9.217219295483828,-24.736662420153618
1664206386064383700,9.3483837890625,1.0607692826151847,6.133560622438788,-30.9633870639801
1664206386074339600,9.358339599609375,-2.95407543079853,2.330966328564286,-35.07597085161209
1664206386084295700,9.368295654296874,-7.6450974042892454,-0.6709998574391007,-35.81268587476015
1664206386094251500,9.37825146484375,-10.265074151468276,-2.8318036806091667,-32.03737823173999
1664206386104208000,9.388207763671875,-10.045209749794006,-4.455710996359587,-26.195921317756174
1664206386114163700,9.398163818359375,-7.851931643998623,-5.800832058128714,-22.0866295574069
1664206386124119800,9.408119873046875,-4.399168148143589,-7.715757917445898,-19.825327132177353
1664206386134075600,9.41807568359375,-0.9222992618188262,-9.824072259443998,-17.796453991162775
1664206386144031700,9.42803173828125,1.0548723335310817,-11.430777972763776,-14.841536848843097
1664206386153987600,9.437987548828126,1.2490201101467013,-12.501418661051988,-11.19887826538086
1664206386163943700,9.447943603515625,-0.1648351728916168,-13.030448380619287,-7.901587947571278
1664206386173899800,9.457899658203125,-2.5544474594309925,-13.397362123125792,-5.228177131846547
1664206386183855900,9.46785595703125,-4.549238298101723,-13.652371487939357,-2.730090734323859
1664206386193811700,9.477811767578125,-5.702318492406606,-13.967509450501202,0.07533084305524826
1664206386203767800,9.487767822265624,-5.830168042728305,-14.306411735010146,2.8928841722548007
1664206386213723600,9.4977236328125,-5.063271231806278,-14.77168882111311,5.136510071018338
1664206386223679700,9.5076796875,-3.816958627052605,-15.319924760931729,6.60700874003768
1664206386233635600,9.517635498046875,-2.7419571132063862,-15.815226398420332,7.462591550150513
1664206386243591700,9.527591796875,-1.9194225862145422,-15.896297246432303,7.84542825345397
1664206386253546800,9.537546630859374,-1.3962828014686703,-15.73806015663147,8.189903369659184
1664206386263502600,9.547502685546876,-1.2406576477319002,-15.418994206970929,8.77757875494063
1664206386273458700,9.557458740234376,-1.3701055731609464,-14.873837528467178,9.254937323981522
1664206386283414500,9.56741455078125,-1.6195771775916217,-14.194819492006301,9.429159918421506
1664206386293370600,9.57737060546875,-1.818136633169651,-13.420045079576969,10.037478863281011
1664206386303326700,9.58732666015625,-1.9936685566425323,-12.419065372014044,10.854845047724247
1664206386313282800,9.59728271484375,-2.0343089023277163,-11.372059241813421,10.888473761081695
1664206386323238700,9.60723876953125,-1.8617782064974306,-10.61855908808112,9.820918179327249
1664206386333194800,9.61719482421875,-1.8932269454672932,-9.937418068116903,9.065595486342906
1664206386343150600,9.627150634765625,-2.1896283511161805,-9.109374422314762,8.609845522519946
1664206386353106700,9.637106689453125,-2.7644635440468788,-8.610238905751705,7.236886021232604
1664206386363062500,9.6470625,-3.591897533518076,-8.333347379475832,3.732582015493512
1664206386373018600,9.6570185546875,-4.501113149619102,-8.479927349230646,-1.789070697683096
1664206386382974700,9.666974609375,-5.616286222594976,-9.246077725699543,-8.500493751919269
1664206386392930800,9.676930908203126,-6.475555612266064,-10.566782139092684,-16.552290965658425
1664206386402886700,9.68688671875,-6.597454145228863,-13.032537461853027,-24.86645901288986
1664206386412842200,9.69684228515625,-6.098686877456307,-14.195526763492822,-32.248876956129074
1664206386422798300,9.70679833984375,-5.295995699575543,-10.095572155809402,-38.4543343555212
1664206386432754200,9.716754150390624,-3.313976079672575,-7.0196507990181445,-45.274741516089435
1664206386442710300,9.726710205078126,0.38068420144468545,-5.339349103611707,-51.92589919445514
1664206386452665300,9.736665283203125,3.404516182297468,0.6348392875164747,-51.17252997362613
1664206386462621200,9.74662109375,2.560444069497287,6.702409726697206,-40.87642472407818
1664206386472577300,9.756577392578125,-0.5031779238216578,11.328930878704785,-30.029124684906005
1664206386482533000,9.766533203125,-3.7629160712197423,15.17824016200304,-24.23745033122301
1664206386492489200,9.7764892578125,-6.294353826463222,17.759464276939628,-21.45553296355009
1664206386502445300,9.7864453125,-7.757405102086067,19.521773224425313,-18.573814328432082
1664206386512401400,9.7964013671875,-8.338523905330895,20.706786141824722,-14.841602315294741
1664206386522357200,9.806357177734375,-8.116867359542846,21.88839947991371,-10.797757132846117
1664206386532313300,9.816313232421875,-7.09694446657896,23.281043924880027,-6.583590455049276
1664206386542269200,9.826269287109374,-5.460335782426595,24.20344986194372,-2.1400983042716977
1664206386552225300,9.836225341796874,-4.073886684969067,24.57544193062782,2.846724478626251
1664206386562181000,9.84618115234375,-3.2846137915879488,24.572802229774,7.726596122324466
1664206386572137500,9.856137451171875,-3.2381545304909345,24.27179917554855,11.063082139968872
1664206386582093300,9.86609326171875,-3.449089775778353,23.928039514136312,12.651915511989593
1664206386592049400,9.87604931640625,-3.3278090824529527,23.45494853941202,13.570409828567504
1664206386602005200,9.886005126953124,-2.575929515659809,23.268890545749663,14.379909517419337
1664206386611961300,9.89596142578125,-1.4708663332879544,23.32167521047592,15.593473991042375
1664206386621917200,9.905917236328126,-0.5256485526964068,23.249269314956663,16.83760662140846
1664206386631873300,9.915873291015625,-0.535103778783977,22.995586814832684,17.479196552228927
1664206386641828400,9.925828369140625,-1.7751324809625744,22.59494148311615,17.089048064607383
1664206386651784200,9.9357841796875,-3.1130797055795787,22.165123832929133,15.165208830994366
1664206386661740300,9.945740234375,-4.031977342261373,21.367702704405783,12.577848405259846
1664206386671696100,9.955696044921876,-4.437059487381577,20.24509100586176,10.992305891478061
1664206386681652200,9.96565234375,-4.263215370865166,19.25650433140397,10.81957148976922
1664206386691608000,9.975608154296875,-3.524307221587002,18.466174622446296,11.146575246691704
1664206386701564400,9.985564453125,-2.5135119301915165,17.88568476475477,10.989260532432795
1664206386711520300,9.995520263671875,-1.5398331942692398,17.061742709052563,10.134923338466882
1664206386721476400,10.005476318359374,-0.5029723182469606,16.053866812235118,7.999934340032935
1664206386731432200,10.01543212890625,0.15072043056041,14.700866979914903,5.3101680173128845
1664206386741388300,10.02538818359375,0.23786007709205148,13.31744745941162,2.810660647076368
1664206386751344000,10.03534423828125,0.24258973596245048,12.584765637302398,0.21333295407891273
1664206386761300200,10.04530029296875,0.6760407742157578,12.804351806557177,-2.168655121192336
1664206386771256300,10.05525634765625,1.3227663143590092,13.360931211829184,-4.694877479875087
1664206386781212400,10.06521240234375,1.3987541600182651,12.824251269769668,-7.220348143407702
1664206386791168300,10.075168212890626,1.4301365557536483,10.425379279714821,-11.031879192453623
1664206386801124400,10.085124267578125,2.237315692703426,7.694256864255666,-17.603110516667364
1664206386811080200,10.095080078125,3.073576254969835,6.523284162646532,-26.331474282062054
1664206386821036300,10.105036376953125,1.468309634542465,4.247972501286864,-34.81665356047153
1664206386830992100,10.1149921875,-4.20539329649359,0.34580037345960735,-40.794367203116416
1664206386840947500,10.124947509765626,-11.897934881263971,-3.514803772443533,-41.29775277833939
1664206386850903300,10.1349033203125,-16.778662265008688,-5.62144521279335,-35.630761619901655
1664206386860859400,10.144859375,-17.606092747348544,-6.902493907624483,-27.053616005456448
1664206386870815200,10.154815185546875,-14.260296465045213,-7.749663109657168,-20.09432410581112
1664206386880771300,10.164771240234375,-8.258211766731739,-8.273300614792108,-15.249245543074608
1664206386890727200,10.17472705078125,-2.3348107290327547,-8.998590573084353,-11.426860507059097
1664206386900683500,10.18468359375,2.0402872460849584,-10.112212324965,-8.270794769451022
1664206386910639400,10.194639404296876,4.45134958627969,-11.093991657495499,-5.883015251296758
1664206386920595500,10.204595458984375,5.009401694452762,-11.763594215357303,-3.897196823632717
1664206386930551300,10.21455126953125,4.207284517067671,-12.023434069067239,-1.8471359331607817
1664206386940507400,10.22450732421875,2.7684739487320185,-11.971952888154982,0.5804863505601883
1664206386950463200,10.234463134765624,1.5202691004909574,-11.694337723779677,3.5402106009006498
1664206386960419300,10.24441943359375,0.6237902163662016,-11.30818619683981,6.337584480902552
1664206386970375400,10.25437548828125,-0.009377923067659139,-11.118194370859861,8.46486831178665
1664206386980331300,10.264331298828125,-0.44102644194364543,-11.056527311497925,9.623364978182316
1664206386990287400,10.274287353515625,-1.0280218821369111,-10.916261931717395,10.1344802708745
1664206387000243200,10.2842431640625,-1.7634158858142792,-10.844117902004719,10.464124897694587
1664206387010199300,10.29419921875,-2.4845956323087215,-10.665921727758645,10.524407809221744
1664206387020155100,10.304155029296876,-3.05577522534132,-10.432635534453391,10.366571701437234
1664206387030111200,10.314111328125,-3.3822973362267015,-10.085686721611022,10.219516515386104
1664206387040067000,10.324067138671875,-3.3316181193470955,-9.586497429034113,10.495492680382728
1664206387050022400,10.3340224609375,-2.877567360657453,-8.87235605674386,10.923315941882134
1664206387059978200,10.343978271484374,-2.2913994573295113,-8.217069609004259,10.76623036020398
1664206387069934300,10.353934326171874,-2.022483147716522,-7.786237228816748,10.145742838644981
1664206387079890200,10.36389013671875,-1.8582209524072706,-7.418536135324835,9.107468880954384
1664206387089846300,10.37384619140625,-1.669911526556313,-7.4163634674608705,7.62705379807651
1664206387099802400,10.38380224609375,-1.5287632264614104,-7.461457577684521,5.483218060842156
1664206387109758500,10.393758544921875,-1.6507133434809744,-7.796760376396775,2.8777386255711317
1664206387119714300,10.40371435546875,-1.6138813040375708,-8.236043189543485,0.33353403547406196
1664206387129670400,10.41367041015625,-1.29802554859519,-8.343050442844628,-2.4196628491491077
1664206387139626200,10.423626220703126,-0.954854062334448,-8.177349593034386,-6.02415624486804
1664206387149582300,10.433582275390625,-1.301176267711073,-8.455968966016172,-10.30094976696968
1664206387159538200,10.4435380859375,-2.7671313019514083,-9.729012049046158,-15.993717171698808
1664206387169494300,10.453494384765625,-4.504861103975773,-10.659204402202366,-22.888647366070746
1664206387179450400,10.463450439453124,-6.2373068281173705,-8.425094519802927,-28.96162404820919
1664206387189406500,10.473406494140624,-7.468232770907878,-5.782874376633763,-32.292402794122694
1664206387199362300,10.4833623046875,-7.839736179292202,-4.486637465021014,-33.786328515958786
1664206387209318400,10.493318359375,-7.144601705288887,-1.2497997162170706,-33.70925579767227
1664206387219274200,10.503274169921875,-6.606624124634266,2.4174567174069583,-29.830113686168193
1664206387229230300,10.513230224609375,-6.525780071115493,5.097797770786285,-24.967123034644125
1664206387239186200,10.523186279296874,-6.26707302082777,7.23961749202311,-22.01375136820078
1664206387249142500,10.533142578125,-5.609648392015695,8.98065510342121,-20.504815124237535
1664206387259097300,10.543097412109375,-4.936742116433382,10.16760278827548,-18.141767311757803
1664206387269053200,10.55305322265625,-4.120997395712137,11.347148087918757,-14.633447056114672
1664206387279009300,10.56300927734375,-3.188822928828001,12.439797194397448,-10.81813239687681
1664206387288965000,10.572965087890625,-2.5850971569776533,13.355565300881862,-7.09202103870213
1664206387298921500,10.58292138671875,-2.4530443097472188,14.025256706070898,-3.248816502019763
1664206387308877300,10.592877197265626,-2.2481785936318337,14.388205052077769,0.6646084028363227
1664206387318833400,10.60283349609375,-1.8677426678597926,14.514877959835529,3.8649996043831107
1664206387328789200,10.612789306640625,-1.4074410320818422,14.565579388546944,6.122146663498878
1664206387338745300,10.622745361328125,-0.9894435835480689,14.881214194715023,7.839851330104469
1664206387348701200,10.632701171875,-0.9753450616993009,15.832773745548725,9.416939903795718
1664206387358657300,10.6426572265625,-1.9410697698771953,17.035399476528166,11.8914268145442
1664206387368613000,10.652613037109376,-2.8543641797244548,18.198032219815254,14.638327813893556
1664206387378569500,10.662569580078125,-2.8115046966850756,19.138076689422128,16.438205152273177
1664206387388525300,10.672525390625,-1.8247334010861813,19.903709179496765,17.006491361951827
1664206387398481400,10.6824814453125,-0.33204335852488875,20.699727455484865,16.38849741077423
1664206387408439800,10.692439697265625,1.1535481040775775,20.976140842854974,16.1294677044034
1664206387418396000,10.70239599609375,2.393661415799707,20.93894654597044,16.49261712594032
1664206387428352000,10.71235205078125,3.3232755306765434,21.06745952863693,17.197507270282507
1664206387438308000,10.72230810546875,3.524468257367611,21.408392442190646,17.712397405338287
1664206387448264000,10.732263916015626,2.813523635292053,21.226832928991318,17.567971398746966
1664206387458220000,10.742219970703125,1.6821021689571438,21.282633726668358,16.45408895010352
1664206387468174800,10.7521748046875,0.6829742267407477,21.551343115532397,13.783325434017181
1664206387478131000,10.762130859375,-0.14448343586698173,21.193891613376138,10.156907206737994
1664206387488087000,10.772087158203124,-0.9730568046316503,20.360295594143867,6.987482221341133
1664206387498043000,10.78204296875,-1.5768901285097001,19.29304279472828,4.425985135659575
1664206387507999000,10.7919990234375,-1.1648926510430873,18.762137928938863,2.465298811164498
1664206387517954800,10.801954833984375,0.08134586556106806,19.463208807253835,0.684356474879384
1664206387527911000,10.811910888671875,1.1258369442008436,20.71531080906391,-1.9584972900182007
1664206387537866800,10.82186669921875,0.737330963089317,20.896690289521217,-6.308734818515181
1664206387547822800,10.83182275390625,-0.623661767680943,19.54190766543746,-14.590480021047592
1664206387557779000,10.841779052734376,-1.832562341146171,18.15476707858443,-24.113980603420732
1664206387567735000,10.851735107421876,-1.567319167087972,17.42769783565998,-32.66325855225325
1664206387577691000,10.86169091796875,-2.613979260329902,13.69004041659832,-37.333918121194834
1664206387587647000,10.87164697265625,-5.918538984620571,8.097745894965529,-39.014427906394005
1664206387597602800,10.881602783203125,-9.114585434961318,4.474435862834751,-39.4593846735239
1664206387607559000,10.891558837890624,-12.346631419444083,1.4516016608476638,-35.5336281103611
1664206387617514800,10.9015146484375,-13.948132549858093,-1.2607637394323945,-28.348951584315298
1664206387627470800,10.911470947265625,-12.710987294161319,-2.956049653480947,-22.447445567560194
1664206387637427000,10.921427001953125,-9.136360044395923,-4.315658674807846,-19.503762935960292
1664206387647383000,10.931383056640625,-4.556224211466312,-5.9916223410099745,-18.015408876776693
1664206387657339000,10.9413388671875,-0.28653029223680493,-8.031049024742842,-15.535594633525609
1664206387667294000,10.9512939453125,2.7999603893637657,-9.718199563130735,-11.790821244978904
1664206387677249800,10.961249755859376,4.1955154610797765,-10.792718554157018,-7.810550416818261
1664206387687206100,10.9712060546875,3.9466391921937465,-11.184157666110991,-4.423654646885395
1664206387697162000,10.981161865234375,2.4548048896789547,-11.426309887439011,-1.4340993219047784
1664206387707118000,10.9911181640625,0.038294294015690684,-11.775803708589077,1.3697545677661895
1664206387717074000,11.001073974609374,-2.192605759491771,-12.220545371663569,3.4196050303578374
1664206387727030000,11.011030029296874,-3.5363834438279267,-13.104921145540475,4.433434282621741
1664206387736985900,11.02098583984375,-3.856162217932939,-14.289485150128602,5.266549240338802
1664206387746942000,11.03094189453125,-3.192789494371414,-15.193703104072808,5.819449664837122
1664206387756898000,11.04089794921875,-2.013900028288364,-15.914742419183254,5.565691176867484
1664206387766854000,11.05085400390625,-0.9461574725944548,-16.52649484562278,5.4630923876583575
1664206387776810000,11.06081005859375,-0.4947460494324565,-16.891775433969496,5.852264723724127
1664206387786765800,11.070765869140626,-0.6239046365261077,-17.008604993104935,6.476691922819614
1664206387796722000,11.080721923828126,-0.9839163445591926,-16.651452766156197,7.124256836396455
1664206387806677800,11.090677734375,-1.2238848651725798,-16.086975301110744,7.714971735504269
1664206387816633900,11.1006337890625,-1.2877484847307203,-15.553742869156599,7.823693391507864
1664206387826589700,11.110589599609375,-1.2002630935013294,-15.15233415185213,7.173610357630253
1664206387836546000,11.120546142578124,-1.1694179464478045,-14.787660297226905,5.624751853123307
1664206387846502000,11.130501953125,-1.3254409403957426,-14.359241992443799,3.1502982601225376
1664206387856458000,11.1404580078125,-1.47947648685351,-14.038212049233913,0.18802958599627018
1664206387866413800,11.150413818359375,-1.6031600035369395,-13.783802403879164,-2.379100537136197
1664206387876370000,11.160369873046875,-1.7240077122725546,-13.236187226307392,-4.419920136532188
1664206387886325000,11.170324951171875,-1.9361843359231947,-12.202743172991275,-6.351494348311424
1664206387896281000,11.180281005859374,-2.7384803770065305,-10.432681127160787,-8.608806827121972
1664206387906237000,11.19023681640625,-4.404781604111195,-8.702662337905169,-11.221064378225803
1664206387916193000,11.200193115234375,-6.589504647529125,-7.795328297767043,-14.229886129212378
1664206387926148900,11.21014892578125,-8.070603621017932,-7.122276476234197,-18.59655106089711
1664206387936105000,11.22010498046875,-7.960356947404145,-5.015934895613789,-23.592619811046124
1664206387946060800,11.230060791015624,-6.795960117053985,-1.5168360573023556,-28.28005749630928
1664206387956017000,11.240016845703124,-5.846828670150042,-0.2569569917500019,-32.24413999073505
1664206387965973000,11.249972900390626,-4.916467390167713,1.037670438839495,-36.322171520423886
1664206387975929000,11.25992919921875,-4.08518490857482,4.129549827741086,-37.01378015838861
1664206387985885000,11.269885009765625,-4.155389494657516,7.340074008506536,-33.23193054637909
1664206387995841000,11.279841064453125,-4.466193811929226,10.41111694560647,-29.3810021374464
1664206388005796900,11.289796875,-4.6537364911913865,12.787142313081025,-26.933452333462238
1664206388015753000,11.2997529296875,-4.670867658734322,14.311320549839735,-24.887041197669504
1664206388025708800,11.309708740234376,-4.2774470175743105,15.403801314014196,-22.274731039595604
1664206388035665200,11.3196650390625,-3.563268820405006,16.427507232648132,-18.849853621792793
1664206388045621000,11.32962109375,-2.83824072791934,17.299170824468135,-14.550414552640914
1664206388055577000,11.3395771484375,-2.4744401489973065,17.936091594433783,-9.861028071397543
1664206388065533000,11.349532958984375,-1.8866940365672111,18.7500979470551,-5.546476773309707
1664206388075488800,11.35948876953125,-1.7973358372032642,19.623246224474904,-0.9623661915302276
1664206388085444900,11.36944482421875,-3.0489667143702506,20.637885039556025,3.884000072929263
1664206388095400000,11.37939990234375,-4.5006326726257795,21.163699888730047,8.3799764441818
1664206388105356000,11.38935595703125,-4.826696518349647,21.37656639434099,11.12767063973546
1664206388115311900,11.399311767578125,-3.941289647859335,21.738544434010983,11.58705691423416
1664206388125268000,11.40926806640625,-2.2836112876713273,22.330288676166532,11.516924808865785
1664206388135223800,11.419223876953126,-0.05322663634009659,22.73503735154867,12.961836032164095
1664206388145180000,11.429179931640626,2.299275159140676,23.004565071058273,15.527805294823645
1664206388155135700,11.4391357421875,4.191897562843561,22.82914069961309,18.41393122498989
1664206388165092000,11.449092041015625,5.2498751689136025,22.539489060485362,20.574062263464928
1664206388175048000,11.4590478515625,5.100257438898086,22.64366722784042,20.907627863121032
1664206388185004000,11.469004150390624,4.0696635143160815,22.432706263589857,19.894976422464847
1664206388194960000,11.4789599609375,2.6487352241516113,21.73575041937828,18.28670068334937
1664206388204916000,11.488916015625,1.474429724857956,20.936334902167317,16.554546051108836
1664206388214871800,11.498871826171875,0.6703649205364286,19.997592747330664,15.016442164850234
1664206388224828000,11.508827880859375,-0.09741298406906425,18.737167153811452,13.432701147532462
1664206388234784000,11.518783935546875,-0.6066133099853992,17.471494891810416,10.830433075523375
1664206388244740000,11.528739990234374,-0.6572315904580056,15.954721378350257,7.91778972530961
1664206388254696000,11.538696044921876,-0.1970632256709039,14.432631053781508,5.412273470047116
1664206388264652000,11.548652099609376,0.6697182931959629,13.105569964838027,3.260445565015077
1664206388274607900,11.55860791015625,1.6915535956524312,12.262449745935202,1.0109592497855424
1664206388284564000,11.56856396484375,2.8443139103531836,11.983066987365483,-0.9254951352506875
1664206388294519000,11.57851904296875,4.179650660210847,12.42012101854682,-2.559420863929391
1664206388304475000,11.588474853515624,4.920936644536257,12.166762343549728,-4.24223658798337
1664206388314431000,11.598430908203126,4.461949013966322,10.203070407497883,-6.969996249011158
1664206388324386800,11.60838671875,3.421445105266571,8.689701149523257,-14.195401675808428
1664206388334343000,11.618343017578125,2.081545577538013,7.688850036776065,-25.85067930883169
1664206388344298800,11.628298828125,-0.7088518875800073,4.552540554517507,-36.27825989798307
1664206388354254800,11.6382548828125,-4.029574665033817,0.9427285941243171,-41.758398112988466
1664206388364211000,11.6482109375,-6.586364595937728,-1.3816893357098101,-38.869959814226625
1664206388374167000,11.6581669921875,-7.935615304857492,-2.2717741348832843,-29.804097785902023
1664206388384123000,11.668122802734375,-10.099972436594962,-2.5126544365793464,-20.641071852898598
1664206388394079000,11.678078857421875,-12.738651546156406,-2.843721789678931,-14.749181221228836
1664206388404034800,11.688034912109375,-12.823411896336077,-3.2922757045179605,-11.673783596050738
1664206388413988000,11.697988037109376,-10.301311001497506,-3.611425240808725,-9.430016242989897
1664206388423944200,11.707944091796875,-6.776128458380699,-4.169711157737672,-6.735225954627991
1664206388433900000,11.717900146484375,-3.03494286519289,-4.93902175180316,-3.9223803647279736
1664206388443856100,11.727856201171875,-0.00851765297651291,-5.653369460320472,-1.6917735220134258
1664206388453812200,11.737812255859374,1.6333363844834268,-6.284318754661083,-0.26364333764612674
1664206388463768300,11.747768310546874,2.267671375739574,-6.778427382972836,0.592169189569354
1664206388473724200,11.75772412109375,1.8958990872859953,-7.11688133919239,1.6016566132366656
1664206388483680300,11.76768017578125,0.5899860003113746,-7.209175007486343,2.82466403798759
1664206388493636000,11.777635986328125,-1.11171847554259,-7.1611577032923694,4.012165265071392
1664206388503591200,11.787591064453125,-3.129420307266712,-7.246521864584088,4.928026895058155
1664206388513547300,11.79754736328125,-4.738773904746771,-7.3686559598684305,5.561196203535795
1664206388523503000,11.807503173828126,-5.62698414222002,-7.7027745172321795,6.156637546643615
1664206388533459200,11.817459228515625,-5.6480152398109436,-8.303542608320713,6.656917557066679
1664206388543415000,11.8274150390625,-4.600407052063941,-8.788460214439034,6.960233564409613
1664206388553371100,11.83737109375,-3.3205098653554916,-9.278193696406483,7.268640757411718
1664206388563327000,11.847326904296875,-2.725659473878145,-9.542217557802795,7.578333314049243
1664206388573283000,11.857282958984374,-2.3778631042957303,-9.585809446769952,8.217518521815538
1664206388583239200,11.8672392578125,-1.8906617711544036,-9.473723282769322,9.092938835820554
1664206388593195300,11.8771953125,-1.2958499581217766,-9.290210881936549,9.84432126674652
1664206388603151000,11.887151123046875,-0.6716804601144045,-9.09387933154106,10.319094495469331
1664206388613107200,11.897107177734375,-0.2993289470007643,-9.303995077139138,10.254693042707443
1664206388623063000,11.90706298828125,-0.20971184097230433,-9.624729252272843,9.875616568720341
1664206388633019100,11.91701904296875,0.4848170683532953,-9.809198515439032,9.362615608412026
1664206388642975000,11.92697509765625,2.008044287997484,-10.34673653563261,7.956355895069241
1664206388652931300,11.936931396484376,3.842292682534456,-10.96509756655693,5.418558833926916
1664206388662887200,11.94688720703125,5.458740037667751,-11.64699729593396,1.6940093182414768
1664206388672843300,11.95684326171875,6.7765399617910385,-11.977861235415935,-3.7475814317047593
1664206388682799000,11.966799072265625,7.495602423870563,-11.704745720547438,-11.689551658546923
1664206388692755200,11.976755126953124,6.767381672823428,-10.459032542991638,-21.69111632788181
1664206388702711000,11.9867109375,3.89236954960674,-9.126756349748373,-30.399828467345237
1664206388712667100,11.996667236328125,-1.1008920341670512,-8.008308785146474,-34.08066568255424
1664206388722623200,12.006623291015625,-6.361323668408393,-5.31138849901855,-33.77337083470821
1664206388732578300,12.016578369140625,-10.440758050632477,-1.2466671172797679,-32.4044790212512
1664206388742534100,12.0265341796875,-12.794901256644724,1.6346503896914422,-30.768021143746374
1664206388752490200,12.036490234375,-13.395463596028089,3.9216833223745224,-29.223419712162016
1664206388762446000,12.046446044921876,-13.010247304111719,6.333143868106603,-27.045374246811864
1664206388772402200,12.056402099609375,-11.638029561102389,8.201293363201618,-23.798294359326363
1664206388782358300,12.066358154296875,-9.314594797086714,9.44705680963993,-20.685818172597884
1664206388792314400,12.076314453125,-6.371525913470983,10.376340231257677,-18.20967355777025
1664206388802270200,12.086270263671874,-3.7007974686980245,10.917861183607577,-15.874319223380088
1664206388812226000,12.09622607421875,-2.2171267450250682,11.255343079924582,-13.321190737593174
1664206388822182100,12.10618212890625,-1.660174268656969,11.688564985597132,-10.619321304625272
1664206388832138000,12.116137939453125,-1.6695245730653405,12.257011354273557,-8.015156459084153
1664206388842094000,12.126093994140625,-2.0378353228881956,13.088167579138279,-5.780417046609521
1664206388852050200,12.13605029296875,-2.316769460907578,13.938572109830378,-3.8780572388768193
1664206388862006300,12.14600634765625,-2.6742414213299748,14.04023215688467,-1.767098519849777
1664206388871962000,12.155962158203126,-3.4245544694587586,13.800081338506937,0.24637188484966754
1664206388881918200,12.165918212890626,-4.20114089974612,13.568587289315461,1.750481731569767
1664206388891874000,12.1758740234375,-4.917393857362866,13.435122237199543,2.8489316332817074
1664206388901830100,12.185830078125,-5.653270676121116,13.757816898751258,3.715955290341377
1664206388911786000,12.195785888671875,-6.330936128929257,14.573147777974604,5.148064899733662
1664206388921742000,12.2057421875,-6.744715082985162,16.050311750102043,6.759393596678972
1664206388931698200,12.2156982421875,-6.554247456187009,17.86096065786481,7.772609100958705
1664206388941654300,12.225654296875,-6.407685606610775,18.824245717805624,8.381669219574333
1664206388951609000,12.235609130859375,-7.135406006920337,18.887732978332043,9.25807328391969
1664206388961565200,12.245565185546875,-8.304892853885889,18.718163178133963,10.438873552060127
1664206388971521000,12.25552099609375,-9.162842977651954,18.784784645032882,12.071429161429405
1664206388981477400,12.265477294921874,-9.533545591047405,19.489584773004054,13.792276802235842
1664206388991433200,12.27543310546875,-9.351882032951712,20.570573836827275,15.396934350854158
1664206389001389300,12.285389404296875,-8.643533857110143,21.77800901391506,17.03925965908766
1664206389011345200,12.29534521484375,-8.011941004168987,22.558995724987984,18.18321108278036
1664206389021301200,12.30530126953125,-7.725347583568095,22.652257361531255,17.790318849408624
1664206389031257000,12.315257080078124,-7.422064309450984,21.986026325929164,16.05025563600063
1664206389041213200,12.325213134765624,-6.814718009015917,21.112544871032238,13.372059339565038
1664206389051169300,12.335169189453126,-5.8060155982464545,19.995037217628955,10.540905355036259
1664206389061125400,12.34512548828125,-4.184203208948672,19.099902733850477,8.036151900839805
1664206389071081200,12.355081298828125,-2.1892323375359175,18.59313862210512,6.062234923371673
1664206389081037300,12.365037353515625,-0.2446805707618594,18.36014352070093,4.528163653630018
1664206389090993200,12.3749931640625,1.331381290230155,18.751767341572045,3.2323078502893448
1664206389100949200,12.38494921875,2.326844864720106,19.49587656662464,2.226471934866905
1664206389110905000,12.394905029296876,2.8165108344092964,20.66804870715141,0.642399493637681
1664206389120861200,12.404861083984375,2.8348019856423137,22.409680777311323,-2.5464205125808714
1664206389130817300,12.4148173828125,2.412312194125354,23.489178141272067,-7.294293085062503
1664206389140773000,12.424773193359375,1.9877453040733932,23.39069789329767,-12.883603622448444
1664206389150729200,12.434729248046875,1.2338251713633537,22.19383554815054,-17.62131954257488
1664206389160685000,12.44468505859375,0.3306580416463315,20.022140328609943,-20.499591836631296
1664206389170640100,12.45464013671875,-0.1688026152178645,18.0388213165462,-21.805460499942303
1664206389180596200,12.46459619140625,-0.04810191373750567,16.63690284727812,-21.155762081468104
1664206389190552300,12.47455224609375,0.5221951973721385,15.805567758715151,-19.64621559665203
1664206389200508200,12.484508056640625,1.1925457971222697,14.761267964863777,-18.03559826284647
1664206389210464300,12.49446435546875,2.031784060025215,13.25131582185626,-17.652759805977343
1664206389220420000,12.504420166015626,2.844200513106584,11.184894163691997,-18.65097355595827
1664206389230376200,12.514376220703125,2.8318939892411232,8.577905492901802,-19.535705888187884
1664206389240332000,12.52433203125,2.0951834961377083,5.81024052246511,-19.783173751580716
1664206389250288000,12.5342880859375,1.3180489304482936,3.282394946494698,-19.208428575021028
1664206389260244200,12.544244140625,0.7856956194162368,1.169811841136217,-17.811711181527375
1664206389270200300,12.554200439453124,0.30155981132537124,-0.9271236132353544,-15.939955186372995
1664206389280156200,12.56415625,-0.6050903382018208,-2.3479683167695997,-14.169631274735927
1664206389290112300,12.5741123046875,-1.9770006226971744,-3.3148978706926107,-12.41476562899351
1664206389300068000,12.584068115234375,-3.3022420949980615,-3.937156493577361,-10.615437741190194
1664206389310024200,12.594024169921875,-4.492060366852582,-4.3011505492448805,-8.84915346033275
1664206389319980000,12.60397998046875,-5.447520724517107,-4.4998786393880845,-7.249803954994678
1664206389329936400,12.613936279296874,-6.036251171809434,-4.688174182844162,-5.7044484901726245
1664206389339892200,12.623892333984376,-6.256011528587341,-4.852078212365508,-4.458512025254964
1664206389349848300,12.633848388671876,-6.247828222131729,-4.65643522875607,-3.8532974761515852
1664206389359804200,12.64380419921875,-6.350370312717557,-4.48181457490921,-3.3320901207730174
1664206389369760300,12.65376025390625,-6.542147853070497,-4.571059961548447,-2.9107319636344906
1664206389379716000,12.663716064453125,-6.711451111286878,-4.857254153698682,-2.6230349657058714
1664206389389672200,12.673672119140624,-6.627865650105476,-5.119954073014855,-2.6414576343640683
1664206389399628300,12.683628173828126,-6.291492007291317,-4.896991705325245,-3.097599520114064
1664206389409583000,12.6935830078125,-6.039768824541569,-4.732430673199892,-3.356384311813116
1664206389419539200,12.703539306640625,-5.640518162053823,-5.0817269259512425,-3.2583974003136156
1664206389429495000,12.7134951171875,-4.3370051219582555,-5.098129194697737,-3.6092981656521554
1664206389439451100,12.723451171875,-2.8936615863680837,-4.890988665518164,-4.058558475194872
1664206389449407000,12.733406982421876,-2.0998311758130788,-5.03915327411592,-3.7463486750394104
1664206389459363300,12.74336328125,-1.9539155151858925,-5.413020489022135,-3.049806380064785
1664206389469319200,12.753319091796875,-2.3635645298302173,-4.808911855334043,-3.992416316245496
