time,seconds_elapsed,z,y,x
1664206376914869000,0.198868896484375,1.3881165981292725,-1.6417423486709595,0.43379759788513184
1664206376924824800,0.208824951171875,1.4143328666687012,-1.733516812324524,0.45756539702415466
1664206376934781200,0.21878125,1.5404775142669678,-1.2071866989135742,0.4886458218097687
1664206376944737000,0.228737060546875,2.0155606269836426,-0.7706335186958313,0.5089249014854431
1664206376954692000,0.238692138671875,2.868128538131714,-0.4346299171447754,0.49591320753097534
1664206376964648000,0.24864794921875,3.6244771480560303,0.17397165298461914,0.5007766485214233
1664206376974604000,0.25860400390625,3.917961597442627,1.0612088441848755,0.5160245895385742
1664206376984560000,0.26856005859375,3.205979585647583,1.7906765937805176,0.5062562823295593
1664206376994516200,0.27851611328125,2.574486494064331,1.7471851110458374,0.5066389441490173
1664206377004472000,0.28847216796875,2.544569969177246,0.995905339717865,0.5317003130912781
1664206377014428200,0.29842822265625,2.4944162368774414,0.3990725874900818,0.5712719559669495
1664206377024384000,0.308384033203125,2.282644510269165,0.21560101211071014,0.5899577140808105
1664206377034340000,0.318340087890625,2.166076898574829,0.20455075800418854,0.5833957195281982
1664206377044296000,0.3282958984375,2.150303363800049,0.21666227281093597,0.646070122718811
1664206377054252000,0.338251953125,2.1018190383911133,0.05428214371204376,0.693454384803772
1664206377064208100,0.3482080078125,2.04490327835083,-0.15502750873565674,0.7222034335136414
1664206377074164200,0.358164306640625,1.933335304260254,0.3146768808364868,0.6890619993209839
1664206377084120000,0.3681201171875,1.5790765285491943,0.45325466990470886,0.7473707795143127
1664206377094076200,0.378076171875,1.3496623039245605,0.31497910618782043,0.7747518420219421
1664206377104032000,0.388031982421875,1.4405113458633423,0.1938524842262268,0.6961953639984131
1664206377113988000,0.397988037109375,1.6470110416412354,0.49748295545578003,0.6272003054618835
1664206377123944000,0.40794384765625,1.8869611024856567,0.851374626159668,0.4847869277000427
1664206377133900300,0.417900390625,2.254033088684082,1.1170532703399658,0.3158285319805145
1664206377143856000,0.427856201171875,2.593001127243042,1.2768278121948242,0.20237195491790771
1664206377153812000,0.43781201171875,2.731605052947998,1.0776056051254272,0.1716686338186264
1664206377163767000,0.44776708984375,2.66843318939209,0.6058351993560791,0.29850849509239197
1664206377173723000,0.457722900390625,2.4213366508483887,0.06208455562591553,0.5230271220207214
1664206377183679000,0.467678955078125,2.068866729736328,-0.5099607706069946,0.7534971833229065
1664206377193635000,0.477635009765625,1.7734694480895996,-0.9133995771408081,0.9166041016578674
1664206377203591200,0.487591064453125,1.6526511907577515,-1.1427841186523438,0.9485262036323547
1664206377213547000,0.497547119140625,1.7464580535888672,-1.1844817399978638,1.0009657144546509
1664206377223503000,0.507503173828125,1.9714739322662354,-0.9974420070648193,1.1031215190887451
1664206377233459000,0.517458984375,2.055746078491211,-0.7806804180145264,1.1579514741897583
1664206377243415000,0.5274150390625,1.938494086265564,-0.6337195634841919,1.0898584127426147
1664206377253371000,0.537370849609375,1.7216625213623047,-0.7097400426864624,0.8443083167076111
1664206377263327200,0.5473271484375,1.4824141263961792,-1.3344181776046753,0.45542189478874207
1664206377273283000,0.557282958984375,1.236769199371338,-1.895571231842041,0.32799816131591797
1664206377283239200,0.5672392578125,1.048619031906128,-1.6043192148208618,0.4162881374359131
1664206377293195000,0.577195068359375,1.116257667541504,-1.1955714225769043,0.4700823724269867
1664206377303151000,0.587151123046875,1.3840758800506592,-0.6641037464141846,0.5909543633460999
1664206377313107000,0.59710693359375,1.6991997957229614,-0.04866636544466019,0.6709567904472351
1664206377323063000,0.60706298828125,1.9516701698303223,0.7828254103660583,0.5361848473548889
1664206377333019100,0.61701904296875,2.0851569175720215,1.4794692993164062,0.1158197894692421
1664206377342975200,0.626975341796875,2.068162679672241,1.428737998008728,-0.3952498733997345
1664206377352931000,0.63693115234375,2.0328495502471924,0.9154688119888306,-0.7706562280654907
1664206377362887200,0.64688720703125,2.0174336433410645,0.27633631229400635,-0.8524327278137207
1664206377372843000,0.656843017578125,1.9421288967132568,-0.2546336054801941,-0.36764949560165405
1664206377382798000,0.666798095703125,1.8284331560134888,-0.4334760904312134,0.4922850430011749
1664206377392754200,0.676754150390625,1.8127365112304688,-0.28480857610702515,1.315470814704895
1664206377402710000,0.6867099609375,2.122945785522461,-0.5288845300674438,1.8127611875534058
1664206377412665900,0.696665771484375,2.295450210571289,-0.6700611114501953,1.5537700653076172
1664206377422622000,0.7066220703125,2.2830238342285156,-0.132156103849411,1.2651382684707642
1664206377432577800,0.716577880859375,2.1919116973876953,0.6748892664909363,0.831716775894165
1664206377442534000,0.726533935546875,2.052142858505249,1.3507156372070312,0.5579090118408203
1664206377452489700,0.73648974609375,1.9153600931167603,2.096381902694702,0.26896584033966064
1664206377462446000,0.746446044921875,1.9360803365707397,2.9064557552337646,0.10245214402675629
1664206377472402000,0.75640185546875,2.0115981101989746,3.5063934326171875,-0.003766433335840702
1664206377482358000,0.76635791015625,2.074162006378174,3.6961936950683594,-0.16858844459056854
1664206377492313900,0.77631396484375,2.044163227081299,3.5946993827819824,-0.3377375304698944
1664206377502270000,0.78627001953125,1.8988500833511353,3.5417275428771973,-0.42546674609184265
1664206377512225800,0.796225830078125,1.6255931854248047,3.366694211959839,-0.4840509593486786
1664206377522182000,0.806181884765625,1.237182855606079,2.966156005859375,-0.5313845276832581
1664206377532138000,0.816137939453125,0.8096296787261963,2.356282949447632,-0.5193440914154053
1664206377542094000,0.826093994140625,0.4410332143306732,1.714425802230835,-0.43465936183929443
1664206377552050000,0.8360498046875,0.26905345916748047,1.2266722917556763,-0.2594183087348938
1664206377562006000,0.846006103515625,0.23373301327228546,0.9365025758743286,-0.09237899631261826
1664206377571961900,0.8559619140625,0.2619723975658417,0.9364567995071411,0.009751901961863041
1664206377581918000,0.86591796875,0.3796558976173401,1.1261475086212158,0.05140100419521332
1664206377591873800,0.875873779296875,0.5053811073303223,1.2237675189971924,0.08518373966217041
1664206377601828900,0.885828857421875,0.5068258047103882,1.002469778060913,0.11263332515954971
1664206377611785000,0.895784912109375,0.4651401937007904,0.6707862019538879,0.14037467539310455
1664206377621740800,0.90574072265625,0.46562936902046204,0.4333812892436981,0.18496449291706085
1664206377631697000,0.91569677734375,0.4752569794654846,0.31392228603363037,0.3007453978061676
1664206377641652700,0.92565283203125,0.49265140295028687,0.36496806144714355,0.5004963278770447
1664206377651608800,0.93560888671875,0.5757071375846863,0.555535078048706,0.6534033417701721
1664206377661565000,0.94556494140625,0.6307749152183533,0.7397476434707642,0.6642061471939087
1664206377671521000,0.95552099609375,0.5180118680000305,0.7691502571105957,0.5014380216598511
1664206377681476900,0.965476806640625,0.2729180157184601,0.6074779629707336,0.2601751387119293
1664206377691433000,0.975432861328125,0.03860724717378616,0.21247713267803192,0.11361125856637955
1664206377701388800,0.985388916015625,-0.12106579542160034,-0.27957022190093994,0.1351889669895172
1664206377711345000,0.995344970703125,-0.2229841649532318,-0.7239682078361511,0.2734970450401306
1664206377721300700,1.00530078125,-0.20733435451984406,-0.8402636051177979,0.43294981122016907
1664206377731257000,1.015257080078125,-0.05290137231349945,-0.5142269134521484,0.5153563022613525
1664206377741213000,1.025212890625,0.12883058190345764,0.07413312047719955,0.44129735231399536
1664206377751169000,1.0351689453125,0.33310940861701965,0.6995847821235657,0.23209217190742493
1664206377761124900,1.045124755859375,0.5702173113822937,1.29477858543396,0.0021866466850042343
1664206377771081000,1.0550810546875,0.7740154266357422,1.686830759048462,-0.14469094574451447
1664206377781036800,1.065036865234375,0.8832352161407471,1.8255221843719482,-0.13633039593696594
1664206377790993000,1.074992919921875,0.8864392638206482,1.747974157333374,0.01735982671380043
1664206377800948700,1.08494873046875,0.8166007399559021,1.5449639558792114,0.24595312774181366
1664206377810904000,1.094904052734375,0.7111499309539795,1.2922943830490112,0.45027992129325867
1664206377820860000,1.10485986328125,0.6383370161056519,0.9942516088485718,0.5527156591415405
1664206377830816000,1.11481591796875,0.6479774117469788,0.7174810171127319,0.5649531483650208
1664206377840771800,1.124771728515625,0.7413811087608337,0.5611932277679443,0.5245835185050964
1664206377850728000,1.13472802734375,0.8864437937736511,0.5433380603790283,0.4733906090259552
1664206377860684000,1.14468408203125,1.0354617834091187,0.6377034783363342,0.5222126841545105
1664206377870640000,1.15464013671875,1.0208539962768555,0.7393949627876282,0.6023538708686829
1664206377880596000,1.164595947265625,0.833269476890564,0.6759608387947083,0.6230556964874268
1664206377890552000,1.174552001953125,0.612471342086792,0.47707149386405945,0.6093481183052063
1664206377900508000,1.1845078125,0.44673454761505127,0.30622243881225586,0.568831741809845
1664206377910463700,1.194463623046875,0.3787294030189514,0.3508719205856323,0.45808154344558716
1664206377920419800,1.204419921875,0.3715202510356903,0.5719146728515625,0.24744737148284912
1664206377930376000,1.2143759765625,0.38462379574775696,0.8555314540863037,-0.011247830465435982
1664206377940332000,1.22433203125,0.4014482796192169,1.1130956411361694,-0.21168403327465057
1664206377950288000,1.234287841796875,0.38837775588035583,1.2048591375350952,-0.3107917010784149
1664206377960244000,1.244243896484375,0.3418882489204407,1.2074666023254395,-0.3029922544956207
1664206377970199800,1.25419970703125,0.3259545564651489,1.1597784757614136,-0.15106052160263062
1664206377980156000,1.264156005859375,0.29114389419555664,0.8105114698410034,0.09018220007419586
1664206377990111700,1.27411181640625,0.22525566816329956,0.2976740002632141,0.3700215816497803
1664206378000067800,1.28406787109375,0.16649168729782104,-0.20949332416057587,0.5937747955322266
1664206378010023000,1.29402294921875,0.13252945244312286,-0.5893250703811646,0.6979544758796692
1664206378019979000,1.30397900390625,0.126784548163414,-0.8105458617210388,0.6802073121070862
1664206378029934800,1.313934814453125,0.11740942299365997,-0.8661358952522278,0.6057443022727966
1664206378039891000,1.323890869140625,0.06823356449604034,-0.82191401720047,0.4935620427131653
1664206378049846800,1.3338466796875,-0.030589420348405838,-0.7312738299369812,0.3860187828540802
1664206378059803100,1.34380322265625,-0.18185299634933472,-0.6037924885749817,0.2932514250278473
1664206378069759000,1.353759033203125,-0.3325929641723633,-0.44214025139808655,0.21979397535324097
1664206378079715000,1.363715087890625,-0.43358907103538513,-0.2584817707538605,0.16946333646774292
1664206378089671000,1.3736708984375,-0.4936034083366394,-0.083554707467556,0.15071602165699005
1664206378099627000,1.383626953125,-0.5572242140769958,0.029566772282123566,0.14233063161373138
1664206378109582800,1.393582763671875,-0.5816518068313599,0.04203196242451668,0.13385486602783203
1664206378119539000,1.4035390625,-0.5492293238639832,-0.057558219879865646,0.121554434299469
1664206378129494800,1.413494873046875,-0.48849916458129883,-0.33492857217788696,0.08353780955076218
1664206378139451100,1.423451171875,-0.4800189137458801,-0.7265146374702454,0.054480381309986115
1664206378149407000,1.433406982421875,-0.5140773057937622,-1.051184892654419,0.019103216007351875
1664206378159363000,1.443363037109375,-0.5595273971557617,-1.2997338771820068,-0.06696434319019318
1664206378169319000,1.45331884765625,-0.5816896557807922,-1.392442226409912,-0.1802930384874344
1664206378179275000,1.46327490234375,-0.5742039680480957,-1.3358560800552368,-0.3203125596046448
1664206378189230000,1.47322998046875,-0.538763701915741,-1.1745917797088623,-0.4740009009838104
1664206378199186000,1.48318603515625,-0.49438533186912537,-0.963898241519928,-0.6203538775444031
1664206378209142000,1.49314208984375,-0.4665595591068268,-0.7595738768577576,-0.7561026215553284
1664206378219097900,1.503097900390625,-0.4713606834411621,-0.6088801026344299,-0.8822774291038513
1664206378229054000,1.513053955078125,-0.5213601589202881,-0.6036012172698975,-0.9911423921585083
1664206378239009800,1.523009765625,-0.6050775051116943,-0.7054795622825623,-1.034093976020813
1664206378248966000,1.5329658203125,-0.6764243841171265,-0.8214418292045593,-0.9885488152503967
1664206378258922000,1.542921875,-0.7107890248298645,-0.8602897524833679,-0.8576414585113525
1664206378268878000,1.552878173828125,-0.716884434223175,-0.8133842945098877,-0.672378659248352
1664206378278834000,1.562833984375,-0.7172964215278625,-0.7139374017715454,-0.45696574449539185
1664206378288790000,1.5727900390625,-0.7288729548454285,-0.5802398324012756,-0.26797398924827576
1664206378298745900,1.582745849609375,-0.760166347026825,-0.4856953024864197,-0.17092230916023254
1664206378308702000,1.592701904296875,-0.7992932200431824,-0.42458829283714294,-0.1527545005083084
1664206378318657800,1.60265771484375,-0.8404566645622253,-0.3763678967952728,-0.1884726583957672
1664206378328614000,1.61261376953125,-0.8903379440307617,-0.3506726622581482,-0.23540633916854858
1664206378338570000,1.622570068359375,-0.917943000793457,-0.34100398421287537,-0.27194762229919434
1664206378348526000,1.632526123046875,-0.914892852306366,-0.36086052656173706,-0.3134995996952057
1664206378358481000,1.64248095703125,-0.8903659582138062,-0.38365721702575684,-0.3644034266471863
1664206378368436700,1.652436767578125,-0.85137540102005,-0.38051387667655945,-0.42503029108047485
1664206378378392800,1.662392822265625,-0.8034933805465698,-0.3788757026195526,-0.5055236220359802
1664206378388349000,1.672348876953125,-0.7643589973449707,-0.3684110641479492,-0.6004459261894226
1664206378398305000,1.682304931640625,-0.7311733365058899,-0.3645542860031128,-0.6836125254631042
1664206378408261000,1.69226123046875,-0.72355055809021,-0.3179101049900055,-0.7369042038917542
1664206378418217000,1.702217041015625,-0.7354285717010498,-0.247471883893013,-0.7463130950927734
1664206378428173000,1.712173095703125,-0.7571730017662048,-0.18833479285240173,-0.7203658819198608
1664206378438129000,1.72212890625,-0.7765496373176575,-0.11050070077180862,-0.6510545015335083
1664206378448085000,1.7320849609375,-0.7667540311813354,0.0076445769518613815,-0.5462985038757324
1664206378458040800,1.742040771484375,-0.7309731245040894,0.10539387911558151,-0.4362870454788208
1664206378467997200,1.7519970703125,-0.6905644536018372,0.1643325537443161,-0.31710633635520935
1664206378477953000,1.761953125,-0.6486204266548157,0.18434198200702667,-0.1828489601612091
1664206378487909000,1.7719091796875,-0.6222386360168457,0.19433070719242096,-0.04023882746696472
1664206378497865000,1.781864990234375,-0.6250360012054443,0.20592786371707916,0.1035894975066185
1664206378507821000,1.791821044921875,-0.6409295201301575,0.21560633182525635,0.2353709638118744
1664206378517777000,1.80177685546875,-0.6582924723625183,0.20021948218345642,0.35090675950050354
1664206378527732700,1.811732666015625,-0.6726817488670349,0.07637105137109756,0.43015843629837036
1664206378537688000,1.82168798828125,-0.675559401512146,-0.09902489930391312,0.46590960025787354
1664206378547644000,1.831643798828125,-0.6546149253845215,-0.28133425116539,0.4559733271598816
1664206378557600000,1.84160009765625,-0.6144965291023254,-0.35336634516716003,0.4277028441429138
1664206378567555800,1.851555908203125,-0.5638642907142639,-0.31461575627326965,0.380202978849411
1664206378577512000,1.861511962890625,-0.5415703654289246,-0.29331010580062866,0.2898607552051544
1664206378587468000,1.871468017578125,-0.5748966336250305,-0.3434872627258301,0.2277955263853073
1664206378597424000,1.881424072265625,-0.6514388918876648,-0.48621058464050293,0.21168480813503265
1664206378607380000,1.8913798828125,-0.71142578125,-0.5401241183280945,0.2661248743534088
1664206378617336000,1.901336181640625,-0.7351909875869751,-0.5397166013717651,0.3434895873069763
1664206378627292000,1.9112919921875,-0.7364460825920105,-0.5112245082855225,0.3969767987728119
1664206378637248000,1.921248046875,-0.7234967947006226,-0.45029890537261963,0.45184341073036194
1664206378647203800,1.931203857421875,-0.7388659119606018,-0.5165013670921326,0.4531760513782501
1664206378657160000,1.941159912109375,-0.7844339609146118,-0.6560728549957275,0.4544336497783661
1664206378667116000,1.951115966796875,-0.793323278427124,-0.8998399972915649,0.47059717774391174
1664206378677072100,1.961072021484375,-0.8910314440727234,-0.9848857522010803,0.3963693380355835
1664206378687028000,1.971028076171875,-0.9477149248123169,-0.9683456420898438,0.29586589336395264
1664206378696984000,1.980984130859375,-0.9405558705329895,-0.848124086856842,0.2056008130311966
1664206378706939000,1.99093896484375,-0.8993229866027832,-0.6719149947166443,0.10803085565567017
1664206378716895000,2.00089501953125,-0.7602766752243042,-0.5807925462722778,-0.0017437427304685116
1664206378726851000,2.01085107421875,-0.5644054412841797,-0.6647074222564697,-0.1296156793832779
1664206378736807000,2.020806884765625,-0.4392799139022827,-0.7493376135826111,-0.22304607927799225
1664206378746763000,2.030762939453125,-0.39632898569107056,-0.8069135546684265,-0.25863149762153625
1664206378756718800,2.04071875,-0.39763158559799194,-0.7930274605751038,-0.1923605054616928
1664206378766675000,2.050675048828125,-0.4219758212566376,-0.7962014079093933,-0.009306268766522408
1664206378776630800,2.060630859375,-0.475357323884964,-0.901624858379364,0.27046382427215576
1664206378786587000,2.0705869140625,-0.5376555919647217,-1.0684818029403687,0.5632777810096741
1664206378796543000,2.08054296875,-0.5615683794021606,-1.2043911218643188,0.7576776146888733
1664206378806499000,2.0904990234375,-0.543843150138855,-1.2089920043945312,0.8356099724769592
1664206378816455000,2.100454833984375,-0.5138993859291077,-1.1562180519104004,0.8132156729698181
1664206378826411000,2.110410888671875,-0.5036688446998596,-1.1744524240493774,0.7226775288581848
1664206378836366800,2.120366943359375,-0.5746543407440186,-1.2503803968429565,0.5737404823303223
1664206378846323000,2.130322998046875,-0.7491310834884644,-1.4825619459152222,0.3814932405948639
1664206378856278800,2.14027880859375,-0.9592978954315186,-1.7845882177352905,0.1837887316942215
1664206378866235100,2.150235107421875,-1.0692511796951294,-1.9120566844940186,-0.0017712833359837532
1664206378876191000,2.16019091796875,-1.0791208744049072,-1.718090534210205,-0.18072718381881714
1664206378886146000,2.17014599609375,-1.0112388134002686,-1.2051217555999756,-0.3927275836467743
1664206378896102000,2.180101806640625,-0.8963756561279297,-0.5881695747375488,-0.5948063731193542
1664206378906058000,2.19005810546875,-0.7672232389450073,-0.11498519778251648,-0.7617812752723694
1664206378916014000,2.20001416015625,-0.6285991072654724,-0.34652185440063477,-0.8277422189712524
1664206378925970200,2.20997021484375,-0.6926414966583252,-0.8049938082695007,-0.6832164525985718
1664206378935926000,2.219926025390625,-0.7837196588516235,-1.3438918590545654,-0.22324056923389435
1664206378945882000,2.229882080078125,-0.8015503287315369,-1.6642740964889526,0.48069921135902405
1664206378955838000,2.239837890625,-0.7302796244621277,-1.6583491563796997,1.172386884689331
1664206378965793800,2.249793701171875,-0.5318173766136169,-1.2644611597061157,1.6728267669677734
1664206378975750000,2.25975,-0.2509628236293793,-0.6662442684173584,1.9288597106933594
1664206378985705700,2.269705810546875,-0.017750341445207596,-0.06430704891681671,1.894200325012207
1664206378995662000,2.279662109375,0.06236501783132553,0.3746851682662964,1.6903730630874634
1664206379005618000,2.289617919921875,-0.055060144513845444,0.5433274507522583,1.4421424865722656
1664206379015574000,2.299573974609375,-0.4119415581226349,0.2113359570503235,1.3084098100662231
1664206379025529900,2.30952978515625,-0.8472464084625244,-0.24074681103229523,1.4031249284744263
1664206379035486000,2.31948583984375,-1.1528964042663574,-0.5581498742103577,1.6679720878601074
1664206379045441800,2.32944189453125,-1.2699508666992188,-0.55708247423172,2.020223617553711
1664206379055397000,2.339397216796875,-1.2472844123840332,-0.42394763231277466,2.305436611175537
1664206379065353000,2.34935302734375,-1.1871609687805176,-0.309718519449234,2.4867544174194336
1664206379075309000,2.35930908203125,-1.1699776649475098,-0.22264182567596436,2.524527072906494
1664206379085265000,2.369264892578125,-1.2967138290405273,-0.3615501821041107,2.356341600418091
1664206379095221000,2.379220947265625,-1.5884486436843872,-0.5372594594955444,2.1189305782318115
1664206379105176800,2.3891767578125,-1.8277472257614136,-0.7274576425552368,1.8855401277542114
1664206379115133000,2.3991328125,-1.7639602422714233,-0.6347010135650635,1.8946831226348877
1664206379125089000,2.409089111328125,-1.4935017824172974,-0.4590085446834564,2.126713275909424
1664206379135045000,2.419045166015625,-1.1942983865737915,-0.41534510254859924,2.524979829788208
1664206379145001000,2.4290009765625,-1.0256339311599731,-0.6824873089790344,3.089919328689575
1664206379154957000,2.43895703125,-1.0711979866027832,-1.3789658546447754,3.628406524658203
1664206379164913000,2.448912841796875,-1.3692775964736938,-2.200122594833374,3.95998215675354
1664206379174869000,2.458868896484375,-1.6033192873001099,-2.615229368209839,3.933790683746338
1664206379184824800,2.468824951171875,-1.6048774719238281,-2.440539598464966,3.5353715419769287
1664206379194781200,2.47878125,-1.4099489450454712,-1.8602849245071411,2.9732344150543213
1664206379204737000,2.488737060546875,-1.1330429315567017,-1.3136413097381592,2.50471830368042
1664206379214693000,2.498693115234375,-0.8820124268531799,-0.8946272730827332,2.2212510108947754
1664206379224648000,2.50864794921875,-0.6651993989944458,-0.5589608550071716,2.094327211380005
1664206379234603800,2.518603759765625,-0.4496937692165375,-0.2441227287054062,2.092543840408325
1664206379244560100,2.52856005859375,-0.27214133739471436,-0.026298517361283302,2.061732053756714
1664206379254516000,2.538515869140625,-0.1952929049730301,0.07357609272003174,1.9065313339233398
1664206379264472000,2.54847216796875,-0.14252929389476776,0.04260140284895897,1.6407808065414429
1664206379274428000,2.558427978515625,-0.08053968846797943,0.0032520252279937267,1.2925537824630737
1664206379284384000,2.568384033203125,0.017263568937778473,0.08827131241559982,0.8990113139152527
1664206379294339800,2.57833984375,0.1519782990217209,0.24894648790359497,0.6077958345413208
1664206379304296000,2.5882958984375,0.2579673230648041,0.4404360353946686,0.4580311179161072
1664206379314251800,2.598251708984375,0.3026737868785858,0.5797964930534363,0.40720996260643005
1664206379324208000,2.6082080078125,0.3051997721195221,0.6361034512519836,0.42980101704597473
1664206379334164000,2.6181640625,0.2753206789493561,0.6417205929756165,0.4915665090084076
1664206379344120000,2.6281201171875,0.23131781816482544,0.6201532483100891,0.5231819748878479
1664206379354076000,2.638075927734375,0.155624657869339,0.5794307589530945,0.5177444219589233
1664206379364032000,2.648031982421875,0.07843480259180069,0.6425309181213379,0.5230076313018799
1664206379373987800,2.65798779296875,-0.014894111081957817,0.6850722432136536,0.5305233001708984
1664206379383944000,2.66794384765625,-0.14853446185588837,0.6200439929962158,0.5269957184791565
1664206379393900000,2.677900146484375,-0.28008657693862915,0.5381733775138855,0.5106980204582214
1664206379403855600,2.687855712890625,-0.36090925335884094,0.4765922725200653,0.46979957818984985
1664206379413811500,2.6978115234375,-0.34922388195991516,0.41326403617858887,0.42424631118774414
1664206379423767600,2.707767578125,-0.3232197165489197,0.3943004906177521,0.38417237997055054
1664206379433723400,2.717723388671875,-0.3668966293334961,0.4962957501411438,0.34217169880867004
1664206379443679500,2.727679443359375,-0.46589961647987366,0.704225480556488,0.33271536231040955
1664206379453635300,2.73763525390625,-0.5671197175979614,0.9930196404457092,0.35955214500427246
1664206379463591700,2.747591796875,-0.6482369303703308,1.389919638633728,0.41409367322921753
1664206379473547500,2.757547607421875,-0.7229229211807251,1.8009028434753418,0.45486748218536377
1664206379483503600,2.767503662109375,-0.8511509299278259,1.6189402341842651,0.5460272431373596
1664206379493459500,2.77745947265625,-1.0983837842941284,0.8064678311347961,0.7210288643836975
1664206379503415600,2.78741552734375,-1.2833054065704346,-0.03682585805654526,0.9464220404624939
1664206379513371400,2.797371337890625,-1.3509701490402222,-0.46738529205322266,1.1232911348342896
1664206379523327200,2.8073271484375,-1.3102277517318726,-0.4718879163265228,1.1663340330123901
1664206379533283600,2.81728369140625,-1.2044450044631958,-0.23376107215881348,1.0473765134811401
1664206379543239400,2.827239501953125,-1.0540547370910645,0.06912582367658615,0.8985832929611206
1664206379553195500,2.837195556640625,-0.9111652374267578,0.3548167645931244,0.8221479058265686
1664206379563151400,2.8471513671875,-0.8705517649650574,0.6792334914207458,0.8395665884017944
1664206379573106400,2.8571064453125,-0.8932648301124573,0.9882699251174927,0.86024010181427
1664206379583062500,2.8670625,-0.922650933265686,1.029028296470642,0.801055371761322
1664206379593018600,2.8770185546875,-0.93393474817276,0.9254904985427856,0.687554121017456
1664206379602974500,2.886974365234375,-0.8467721343040466,0.8403276801109314,0.5547041893005371
1664206379612930600,2.8969306640625,-0.6999965310096741,0.7268736958503723,0.455566942691803
1664206379622886400,2.906886474609375,-0.545033872127533,0.5755651593208313,0.40510162711143494
1664206379632842500,2.916842529296875,-0.4160156548023224,0.42652639746665955,0.4387584328651428
1664206379642798300,2.92679833984375,-0.3137199282646179,0.34217554330825806,0.5489068031311035
1664206379652754400,2.93675439453125,-0.227258563041687,0.31176814436912537,0.7223870754241943
1664206379662710500,2.94671044921875,-0.20251086354255676,0.2903640568256378,0.9180992841720581
1664206379672666600,2.95666650390625,-0.24477308988571167,0.12603139877319336,1.058066725730896
1664206379682622500,2.96662255859375,-0.2698182761669159,-0.23511508107185364,1.0818673372268677
1664206379692578600,2.97657861328125,-0.24051819741725922,-0.5999361276626587,1.02055025100708
1664206379702534400,2.986534423828125,-0.1913280189037323,-0.8730672597885132,0.9043368697166443
1664206379712490500,2.996490478515625,-0.17889046669006348,-1.0377470254898071,0.7580179572105408
1664206379722446300,3.0064462890625,-0.20572048425674438,-1.069226622581482,0.6210877895355225
1664206379732402700,3.016402587890625,-0.27066248655319214,-0.9971522092819214,0.4845240116119385
1664206379742358500,3.026358642578125,-0.32120609283447266,-0.8587599396705627,0.33069345355033875
1664206379752313300,3.036313232421875,-0.34479448199272156,-0.7015020847320557,0.15359407663345337
1664206379762269400,3.04626953125,-0.32746368646621704,-0.5358550548553467,-0.02819889783859253
1664206379772225300,3.056225341796875,-0.27961602807044983,-0.3607151508331299,-0.18340632319450378
1664206379782181400,3.066181396484375,-0.23329167068004608,-0.3343791663646698,-0.2842501103878021
1664206379792137500,3.076137451171875,-0.19259589910507202,-0.5767990946769714,-0.33113333582878113
1664206379802093600,3.086093505859375,-0.14242035150527954,-0.9816434979438782,-0.34450802206993103
1664206379812049400,3.09604931640625,-0.09829310327768326,-1.4019641876220703,-0.3446090519428253
1664206379822005500,3.106005615234375,-0.07328202575445175,-1.7068418264389038,-0.3189660310745239
1664206379831961300,3.11596142578125,-0.03881064057350159,-1.900718092918396,-0.2580345571041107
1664206379841917400,3.12591748046875,0.008482308126986027,-1.9808672666549683,-0.13769881427288055
1664206379851873300,3.135873291015625,0.07959592342376709,-1.9669663906097412,0.02239607647061348
1664206379861829600,3.14582958984375,0.16641150414943695,-1.9144675731658936,0.20857900381088257
1664206379871785500,3.155785400390625,0.2593606412410736,-1.8467531204223633,0.3934294581413269
1664206379881741600,3.165741455078125,0.2949916124343872,-1.8036692142486572,0.5528643727302551
1664206379891697400,3.175697509765625,0.20945225656032562,-1.816053867340088,0.7208123207092285
1664206379901653500,3.185653564453125,0.06420265138149261,-1.8030883073806763,0.856026828289032
1664206379911609300,3.195609375,-0.08450298756361008,-1.720012903213501,0.9082688093185425
1664206379921564700,3.205564697265625,-0.196686252951622,-1.5672508478164673,0.8750259280204773
1664206379931520500,3.2155205078125,-0.26472175121307373,-1.38861083984375,0.7619821429252625
1664206379941476600,3.2254765625,-0.2869625985622406,-1.1991394758224487,0.643506646156311
1664206379951432400,3.235432373046875,-0.3187711834907532,-1.0991685390472412,0.5770912170410156
1664206379961388300,3.24538818359375,-0.3681613802909851,-1.135358214378357,0.606957197189331
1664206379971344400,3.255344482421875,-0.41350406408309937,-1.2275229692459106,0.7133760452270508
1664206379981300500,3.265300537109375,-0.44439592957496643,-1.2981675863265991,0.8566897511482239
1664206379991256600,3.275256591796875,-0.48141226172447205,-1.3211573362350464,0.9660276770591736
1664206380001212400,3.28521240234375,-0.5168964862823486,-1.338218092918396,1.031305193901062
1664206380011168500,3.29516845703125,-0.5494424700737,-1.3273380994796753,1.0252561569213867
1664206380021124400,3.305124267578125,-0.5687229633331299,-1.276874303817749,0.953773558139801
1664206380031080400,3.31508056640625,-0.5542590618133545,-1.1634706258773804,0.8453893065452576
1664206380041036300,3.325036376953125,-0.515453577041626,-1.0201995372772217,0.7384924292564392
1664206380050992400,3.334992431640625,-0.4639163017272949,-0.9119458198547363,0.6503980159759521
1664206380060948500,3.344948486328125,-0.38379937410354614,-0.9123284816741943,0.5622020959854126
1664206380070904600,3.354904541015625,-0.2726753056049347,-1.0151773691177368,0.46711695194244385
1664206380080860400,3.3648603515625,-0.19199085235595703,-1.1733691692352295,0.3413954973220825
1664206380090816500,3.37481640625,-0.1495206207036972,-1.3342173099517822,0.20415909588336945
1664206380100771300,3.384771240234375,-0.14541535079479218,-1.3697398900985718,0.06996665894985199
1664206380110727400,3.3947275390625,-0.13896572589874268,-1.2329555749893188,-0.04349760711193085
1664206380120683500,3.40468359375,-0.0867278203368187,-0.9637321829795837,-0.10708536952733994
1664206380130639600,3.4146396484375,0.03589130938053131,-0.7563464641571045,-0.08224206417798996
1664206380140595500,3.424595458984375,0.20249547064304352,-0.7359516620635986,0.09552554041147232
1664206380150551600,3.434551513671875,0.41056644916534424,-0.8914095163345337,0.41102564334869385
1664206380160507400,3.44450732421875,0.6392390131950378,-1.196387529373169,0.8001989722251892
1664206380170463500,3.45446337890625,0.8641669750213623,-1.6293338537216187,1.1778311729431152
1664206380180419300,3.46441943359375,1.0619999170303345,-2.1279914379119873,1.4875290393829346
1664206380190375700,3.474375732421875,1.1938650608062744,-2.5705015659332275,1.665259599685669
1664206380200331500,3.48433154296875,1.2338522672653198,-2.84565806388855,1.6805951595306396
1664206380210287600,3.49428759765625,1.1365615129470825,-2.907705545425415,1.5318806171417236
1664206380220243500,3.504243408203125,0.9271488189697266,-2.765892744064331,1.2247709035873413
1664206380230199600,3.514199462890625,0.6706480979919434,-2.525195598602295,0.8081238865852356
1664206380240155400,3.5241552734375,0.3946055769920349,-2.3583812713623047,0.3875628113746643
1664206380250111500,3.534111572265625,0.16400189697742462,-2.343273639678955,0.07196711003780365
1664206380260067600,3.544067626953125,0.028977500274777412,-2.420496940612793,-0.06782114505767822
1664206380270023700,3.554023681640625,-0.020489923655986786,-2.540403127670288,-0.017198720946907997
1664206380279978500,3.563978515625,-0.017313038930296898,-2.655228853225708,0.16342617571353912
1664206380289934300,3.573934326171875,-0.0022427409421652555,-2.7774181365966797,0.39336976408958435
1664206380299890400,3.583890380859375,0.012026742100715637,-2.8786253929138184,0.6034635901451111
1664206380309846500,3.593846435546875,0.008286047726869583,-2.921614408493042,0.7403064370155334
1664206380319802600,3.603802734375,0.008842382580041885,-2.893467903137207,0.7874387502670288
1664206380329758500,3.613758544921875,0.010960168205201626,-2.8812787532806396,0.7864317297935486
1664206380339714600,3.623714599609375,0.022432534024119377,-2.904923915863037,0.7686578035354614
1664206380349670400,3.63367041015625,0.055389903485774994,-2.915215015411377,0.742476224899292
1664206380359626500,3.64362646484375,0.08466576784849167,-2.92641282081604,0.7128732800483704
1664206380369582300,3.653582275390625,0.09509313851594925,-2.952773332595825,0.6853161454200745
1664206380379538400,3.663538330078125,0.07920178771018982,-2.9679858684539795,0.6765146255493164
1664206380389494500,3.67349462890625,0.035051364451646805,-2.930022954940796,0.6767355799674988
1664206380399450600,3.68345068359375,-0.011692703701555729,-2.822132110595703,0.6789260506629944
1664206380409406700,3.69340673828125,-0.0527099184691906,-2.662585973739624,0.6816025972366333
1664206380419362800,3.70336279296875,-0.054610349237918854,-2.5251662731170654,0.6865976452827454
1664206380429318700,3.713318603515625,-0.02763412520289421,-2.496873617172241,0.6767973303794861
1664206380439274800,3.723274658203125,0.01750512234866619,-2.579798460006714,0.6548217535018921
1664206380449230600,3.733230712890625,0.07376013696193695,-2.713679790496826,0.6268323063850403
1664206380459185700,3.743185546875,0.11854225397109985,-2.8699986934661865,0.5987662672996521
1664206380469141800,3.753141845703125,0.1405533254146576,-2.9865264892578125,0.5708122849464417
1664206380479097600,3.76309765625,0.14320610463619232,-3.007002830505371,0.5424250960350037
1664206380489053700,3.7730537109375,0.1503683477640152,-3.018913745880127,0.5002936720848083
1664206380499009500,3.783009521484375,0.17370961606502533,-3.0395171642303467,0.449997216463089
1664206380508965600,3.792965576171875,0.22193977236747742,-3.063807964324951,0.4334145486354828
1664206380518921700,3.802921630859375,0.28724128007888794,-3.0866611003875732,0.48755741119384766
1664206380528877800,3.8128779296875,0.34862709045410156,-3.0950114727020264,0.6015565991401672
1664206380538833700,3.822833740234375,0.3792441189289093,-3.113861083984375,0.7272831201553345
1664206380548789800,3.832789794921875,0.36397093534469604,-3.1055798530578613,0.8199714422225952
1664206380558745600,3.84274560546875,0.3486228585243225,-3.0645835399627686,0.8125124573707581
1664206380568701700,3.85270166015625,0.33288201689720154,-3.011176109313965,0.6730614900588989
1664206380578657500,3.862657470703125,0.33060500025749207,-2.930457830429077,0.4377978444099426
1664206380588613600,3.872613525390625,0.35168999433517456,-2.8475093841552734,0.1695370078086853
1664206380598569700,3.88256982421875,0.3739590644836426,-2.8029892444610596,-0.07187667489051819
1664206380608525800,3.89252587890625,0.38608184456825256,-2.8362960815429688,-0.2557034194469452
1664206380618481700,3.902481689453125,0.3768092393875122,-2.886845588684082,-0.36868909001350403
1664206380628437800,3.912437744140625,0.35310524702072144,-2.9150166511535645,-0.43840453028678894
1664206380638393600,3.9223935546875,0.330088347196579,-2.894847869873047,-0.4873661994934082
1664206380648348700,3.9323486328125,0.2903915345668793,-2.7841689586639404,-0.505075991153717
1664206380658304800,3.9423046875,0.24702993035316467,-2.6073403358459473,-0.5132215023040771
1664206380668260600,3.952260498046875,0.20758239924907684,-2.416421413421631,-0.5095942616462708
1664206380678216700,3.962216796875,0.17703168094158173,-2.2558653354644775,-0.47179871797561646
1664206380688172500,3.972172607421875,0.17832833528518677,-2.1395859718322754,-0.34714335203170776
1664206380698128600,3.982128662109375,0.19870604574680328,-2.1075997352600098,-0.13896380364894867
1664206380708084500,3.99208447265625,0.2118048220872879,-2.2192344665527344,0.12082264572381973
1664206380718040800,4.002040771484375,0.22108754515647888,-2.4028453826904297,0.3689296543598175
1664206380727996700,4.01199658203125,0.21682514250278473,-2.569911479949951,0.5741189122200012
1664206380737952800,4.021952880859375,0.19647833704948425,-2.6765499114990234,0.689060389995575
1664206380747908600,4.03190869140625,0.15605632960796356,-2.728834629058838,0.7148821353912354
1664206380757864700,4.04186474609375,0.09180036932229996,-2.7298645973205566,0.666425347328186
1664206380767820500,4.051820556640625,0.010061065666377544,-2.695260763168335,0.5416722893714905
1664206380777776600,4.061776611328125,-0.09118592739105225,-2.647028684616089,0.3503231108188629
1664206380787732500,4.071732421875,-0.17880314588546753,-2.593712091445923,0.09630199521780014
1664206380797688800,4.081688720703125,-0.24801497161388397,-2.5521137714385986,-0.17406317591667175
1664206380807644700,4.091644775390625,-0.2884606420993805,-2.4694876670837402,-0.39313584566116333
1664206380817599700,4.101599853515625,-0.31503763794898987,-2.3540852069854736,-0.5132691860198975
1664206380827555600,4.1115556640625,-0.32840728759765625,-2.299332857131958,-0.5694378018379211
1664206380837511700,4.12151171875,-0.33643537759780884,-2.30273699760437,-0.5661128759384155
1664206380847467800,4.1314677734375,-0.3386860191822052,-2.338294744491577,-0.5444419384002686
1664206380857424000,4.141423828125,-0.34324002265930176,-2.4005298614501953,-0.5384714007377625
1664206380867379700,4.151379638671875,-0.34319791197776794,-2.463003396987915,-0.5596795678138733
1664206380877335800,4.161335693359375,-0.33308082818984985,-2.504322052001953,-0.5802455544471741
1664206380887291600,4.171291748046875,-0.30556827783584595,-2.5072410106658936,-0.5647475719451904
1664206380897247700,4.181247802734375,-0.25613948702812195,-2.482517957687378,-0.4932701885700226
1664206380907203600,4.19120361328125,-0.1995089203119278,-2.460732936859131,-0.3725986182689667
1664206380917159700,4.20115966796875,-0.14080965518951416,-2.457943916320801,-0.20992794632911682
1664206380927115800,4.21111572265625,-0.10219304263591766,-2.449523687362671,-0.051089853048324585
1664206380937071600,4.221071533203125,-0.08735471218824387,-2.4141125679016113,0.07899784296751022
1664206380947027700,4.23102783203125,-0.06741750985383987,-2.309913396835327,0.17072175443172455
1664206380956983600,4.240983642578125,-0.03634747117757797,-2.1621315479278564,0.2065463364124298
1664206380966939600,4.250939697265625,0.0052846744656562805,-2.0160560607910156,0.20412740111351013
1664206380976895500,4.2608955078125,0.07466161251068115,-1.911360263824463,0.18293103575706482
1664206380986851600,4.2708515625,0.16184473037719727,-1.9047523736953735,0.1897299736738205
1664206380996807700,4.2808076171875,0.25809699296951294,-2.023728847503662,0.24437004327774048
1664206381006762800,4.2907626953125,0.3639264702796936,-2.236006259918213,0.3460090756416321
1664206381016718600,4.300718505859375,0.48098039627075195,-2.500931978225708,0.47785070538520813
1664206381026674700,4.3106748046875,0.5877252221107483,-2.771301507949829,0.6199306845664978
1664206381036630500,4.320630615234375,0.6524067521095276,-2.9487998485565186,0.7293689846992493
1664206381046586600,4.330586669921875,0.6713777184486389,-2.978492021560669,0.7673890590667725
1664206381056542700,4.340542724609375,0.6487347483634949,-2.8626084327697754,0.7233371734619141
1664206381066498800,4.350498779296875,0.594334602355957,-2.6625990867614746,0.5955607295036316
1664206381076454700,4.36045458984375,0.533363938331604,-2.502131462097168,0.4270358979701996
1664206381086410800,4.37041064453125,0.5101555585861206,-2.4347662925720215,0.26935523748397827
1664206381096366600,4.38036669921875,0.5367727875709534,-2.479670524597168,0.17610466480255127
1664206381106322700,4.39032275390625,0.5752975344657898,-2.6511802673339844,0.15273582935333252
1664206381116278500,4.400278564453125,0.5894919037818909,-2.9054980278015137,0.16696004569530487
1664206381126235000,4.41023486328125,0.5542780160903931,-3.1307015419006348,0.1579301953315735
1664206381136190700,4.420190673828125,0.4824986457824707,-3.3156683444976807,0.08232305198907852
1664206381146146800,4.430146728515625,0.3926613926887512,-3.4961435794830322,-0.08554428815841675
1664206381156102700,4.4401025390625,0.27534887194633484,-3.668341875076294,-0.30838456749916077
1664206381166058800,4.450058837890625,0.11401838809251785,-3.7978248596191406,-0.5525961518287659
1664206381176014600,4.4600146484375,-0.07017435133457184,-3.8686635494232178,-0.7955949902534485
1664206381185970700,4.469970703125,-0.24716486036777496,-3.760835647583008,-1.023780345916748
1664206381195925800,4.47992578125,-0.42773064970970154,-3.447265148162842,-1.2109135389328003
1664206381205881600,4.489881591796875,-0.607126772403717,-2.9359796047210693,-1.3404189348220825
1664206381215837700,4.499837646484375,-0.7723117470741272,-2.296623706817627,-1.3971666097640991
1664206381225793500,4.50979345703125,-0.8967607617378235,-1.598569393157959,-1.391114592552185
1664206381235749600,4.51974951171875,-0.9645288586616516,-0.9680869579315186,-1.3212306499481201
1664206381245705700,4.529705810546875,-0.9732043743133545,-0.5243296027183533,-1.2007485628128052
1664206381255661800,4.539661865234375,-0.9206080436706543,-0.2959718108177185,-1.039059042930603
1664206381265617700,4.54961767578125,-0.8353780508041382,-0.2995438277721405,-0.8432474136352539
1664206381275573800,4.55957373046875,-0.7105085849761963,-0.4885078966617584,-0.6442919373512268
1664206381285529600,4.569529541015625,-0.5871818661689758,-0.7660121321678162,-0.48795583844184875
1664206381295485700,4.579485595703125,-0.48524612188339233,-0.9981095194816589,-0.3994608521461487
1664206381305441500,4.589441650390625,-0.40092727541923523,-1.0758475065231323,-0.3923170864582062
1664206381315397600,4.599397705078125,-0.31343284249305725,-0.9913216829299927,-0.45462706685066223
1664206381325353700,4.609353759765625,-0.23432657122612,-0.8250340223312378,-0.5546334981918335
1664206381335309800,4.619309814453125,-0.17461423575878143,-0.6175351142883301,-0.6465780735015869
1664206381345265700,4.629265625,-0.16517627239227295,-0.44182705879211426,-0.7121019959449768
1664206381355221800,4.6392216796875,-0.20211778581142426,-0.2900678813457489,-0.7164745926856995
1664206381365177600,4.649177490234375,-0.2603001296520233,-0.15892447531223297,-0.6443938612937927
1664206381375132700,4.659132568359375,-0.30287235975265503,-0.03241819515824318,-0.5451287627220154
1664206381385088800,4.6690888671875,-0.31424376368522644,0.08352427184581757,-0.4372628331184387
1664206381395044600,4.679044677734375,-0.31665417551994324,0.14842389523983002,-0.33217236399650574
1664206381405000200,4.689000244140625,-0.3011687099933624,0.15239298343658447,-0.22532354295253754
1664206381414956000,4.6989560546875,-0.2584233582019806,0.11831730604171753,-0.11785035580396652
1664206381424912100,4.708912109375,-0.19639094173908234,0.031886570155620575,-0.018744591623544693
1664206381434868200,4.7188681640625,-0.1500689834356308,-0.08631916344165802,0.0897134467959404
1664206381444824300,4.72882421875,-0.12485920637845993,-0.22281527519226074,0.19489462673664093
1664206381454780200,4.7387802734375,-0.13088540732860565,-0.3563533425331116,0.2697142958641052
1664206381464736300,4.748736328125,-0.150973379611969,-0.4772573411464691,0.2950378656387329
1664206381474692000,4.758692138671875,-0.18472068011760712,-0.5832982659339905,0.277133971452713
1664206381484648200,4.768648193359375,-0.2133277803659439,-0.6400700807571411,0.24568487703800201
1664206381494604000,4.77860400390625,-0.22246189415454865,-0.6711539626121521,0.20590710639953613
1664206381504560000,4.78856005859375,-0.21166332066059113,-0.7255476713180542,0.16390065848827362
1664206381514516200,4.79851611328125,-0.19034259021282196,-0.7862943410873413,0.11864157021045685
1664206381524472300,4.808472412109375,-0.17932243645191193,-0.849678099155426,0.06173550710082054
1664206381534428200,4.81842822265625,-0.17533116042613983,-0.936112642288208,-0.028989866375923157
1664206381544384300,4.82838427734375,-0.19087286293506622,-1.0220657587051392,-0.13526253402233124
1664206381554340000,4.838340087890625,-0.2222057580947876,-1.0533853769302368,-0.24180762469768524
1664206381564295200,4.848295166015625,-0.26306280493736267,-1.0299572944641113,-0.32629138231277466
1664206381574251300,4.858251220703125,-0.294012188911438,-0.9627497792243958,-0.38478052616119385
1664206381584207000,4.86820703125,-0.3052752912044525,-0.8621904253959656,-0.4218456447124481
1664206381594163200,4.8781630859375,-0.30825725197792053,-0.7418962121009827,-0.4496634304523468
1664206381604119000,4.888119140625,-0.3105217218399048,-0.6374014019966125,-0.4658931493759155
1664206381614075100,4.8980751953125,-0.3173615336418152,-0.5330025553703308,-0.47943371534347534
1664206381624031000,4.908031005859375,-0.32315367460250854,-0.40755096077919006,-0.4818269908428192
1664206381633987000,4.917987060546875,-0.32604265213012695,-0.2521651089191437,-0.4590897262096405
1664206381643943200,4.927943115234375,-0.3215712010860443,-0.11236537247896194,-0.4056681990623474
1664206381653899300,4.937899169921875,-0.30422443151474,-0.024455755949020386,-0.3106687068939209
1664206381663855000,4.947855224609375,-0.24964533746242523,0.018872730433940887,-0.17727015912532806
1664206381673811200,4.957811279296875,-0.159067764878273,0.023125797510147095,-0.014115579426288605
1664206381683767000,4.96776708984375,-0.05574402958154678,-0.0031460747122764587,0.1736048012971878
1664206381693723100,4.97772314453125,0.025398224592208862,-0.04546530172228813,0.3703700602054596
1664206381703679000,4.987678955078125,0.0699683353304863,-0.0867883712053299,0.5338543057441711
1664206381713635300,4.99763525390625,0.07547122240066528,-0.09853051602840424,0.6241929531097412
1664206381723591200,5.007591064453125,0.053154680877923965,-0.07888520509004593,0.625447154045105
1664206381733547300,5.01754736328125,0.0007902770303189754,-0.04730943590402603,0.550347089767456
1664206381743503000,5.027503173828125,-0.06382620334625244,-0.00705571286380291,0.4220762550830841
1664206381753458200,5.037458251953125,-0.14527446031570435,0.05823487788438797,0.26856446266174316
1664206381763414300,5.047414306640625,-0.21453526616096497,0.12433850020170212,0.12219183892011642
1664206381773370400,5.057370361328125,-0.26737555861473083,0.17814020812511444,-0.00780077651143074
1664206381783326200,5.067326171875,-0.3033090829849243,0.15952353179454803,-0.1164081022143364
1664206381793282300,5.0772822265625,-0.3174760341644287,0.09047948569059372,-0.18048137426376343
1664206381803238100,5.087238037109375,-0.3194957673549652,0.0109624732285738,-0.21343743801116943
1664206381813194200,5.0971943359375,-0.30949586629867554,-0.07827552407979965,-0.24275271594524384
1664206381823150000,5.107150146484375,-0.31673407554626465,-0.16862452030181885,-0.2825687527656555
1664206381833106200,5.117106201171875,-0.32820379734039307,-0.19648118317127228,-0.3204740285873413
1664206381843062300,5.127062255859375,-0.3131955564022064,-0.16139797866344452,-0.37201234698295593
1664206381853018400,5.137018310546875,-0.2729799747467041,-0.09806748479604721,-0.430700421333313
1664206381862974200,5.14697412109375,-0.2309955209493637,-0.03989043086767197,-0.4788963794708252
1664206381872930300,5.156930419921875,-0.19285985827445984,-0.0008410315494984388,-0.4878203570842743
1664206381882886100,5.16688623046875,-0.15767303109169006,0.017481299117207527,-0.4639388620853424
1664206381892842200,5.17684228515625,-0.13047629594802856,0.00010284222662448883,-0.398586243391037
1664206381902798000,5.186798095703125,-0.13026221096515656,-0.03125140070915222,-0.3010072410106659
1664206381912754200,5.196754150390625,-0.15292730927467346,-0.046061500906944275,-0.1937529742717743
1664206381922710300,5.206710205078125,-0.18243302404880524,-0.04897833243012428,-0.10110349208116531
1664206381932665000,5.2166650390625,-0.20218010246753693,-0.04928033426403999,-0.04323619604110718
1664206381942621200,5.22662109375,-0.2199907898902893,-0.05003214254975319,-0.002505277283489704
1664206381952577000,5.236576904296875,-0.24758780002593994,-0.04223307594656944,0.029817242175340652
1664206381962533000,5.246533203125,-0.2941749691963196,-0.030508272349834442,0.06954632699489594
1664206381972489200,5.2564892578125,-0.3507269322872162,-0.032336533069610596,0.09440480917692184
1664206381982445300,5.2664453125,-0.4216567277908325,-0.028871532529592514,0.10425002127885818
1664206381992401200,5.276401123046875,-0.5104933977127075,-0.004752879962325096,0.08920023590326309
1664206382002357200,5.286357177734375,-0.5875235199928284,0.041817083954811096,0.053542010486125946
1664206382012313000,5.29631298828125,-0.6429466009140015,0.09811604768037796,-0.02086510881781578
1664206382022269200,5.306269287109375,-0.6839509606361389,0.15496456623077393,-0.1502322405576706
1664206382032225000,5.31622509765625,-0.7190511226654053,0.20131182670593262,-0.3137575089931488
1664206382042181400,5.326181396484375,-0.7672166228294373,0.2102709859609604,-0.48005759716033936
1664206382052137200,5.33613720703125,-0.8180334568023682,0.19094441831111908,-0.6240299940109253
1664206382062093300,5.34609326171875,-0.8717474937438965,0.17290867865085602,-0.7331388592720032
1664206382072049200,5.356049072265625,-0.9168957471847534,0.17984993755817413,-0.8128672242164612
1664206382082005200,5.366005126953125,-0.934452474117279,0.20564313232898712,-0.8257763981819153
1664206382091961000,5.375961181640625,-0.9228466749191284,0.2115524262189865,-0.783733069896698
1664206382101917200,5.385917236328125,-0.885738730430603,0.20481227338314056,-0.6972702145576477
1664206382111873000,5.395873046875,-0.8112751245498657,0.1803724318742752,-0.5736899375915527
1664206382121828000,5.405828125,-0.7370805144309998,0.12217435240745544,-0.4316646158695221
1664206382131784200,5.4157841796875,-0.6767799258232117,0.06975854933261871,-0.28310683369636536
1664206382141740000,5.425739990234375,-0.584280788898468,0.026934955269098282,-0.13985656201839447
1664206382151696100,5.435696044921875,-0.47217294573783875,-0.0236765556037426,-0.016960738226771355
1664206382161652000,5.44565185546875,-0.34412097930908203,-0.0875617265701294,0.07735230028629303
1664206382171608300,5.4556083984375,-0.22133301198482513,-0.16296061873435974,0.1529996544122696
1664206382181564200,5.465564208984375,-0.12153985351324081,-0.26053932309150696,0.2096586525440216
1664206382191520300,5.475520263671875,-0.05870576202869415,-0.3641818165779114,0.2406514585018158
1664206382201476000,5.48547607421875,-0.012159308418631554,-0.4371810257434845,0.2529619038105011
1664206382211432200,5.49543212890625,0.02281971462070942,-0.47619765996932983,0.24966037273406982
1664206382221388000,5.505387939453125,0.042221929877996445,-0.48790407180786133,0.23028843104839325
1664206382231344000,5.51534423828125,0.033743489533662796,-0.48125895857810974,0.20808565616607666
1664206382241300200,5.52530029296875,0.017621777951717377,-0.4857008457183838,0.17038142681121826
1664206382251256300,5.53525634765625,0.005470572505146265,-0.5078743100166321,0.1062043085694313
1664206382261212200,5.545212158203125,0.002990863285958767,-0.5287940502166748,0.03518733009696007
1664206382271168300,5.555168212890625,0.02049502171576023,-0.5448481440544128,-0.0471365712583065
1664206382281124000,5.5651240234375,0.055395256727933884,-0.5659374594688416,-0.1287165731191635
1664206382291080200,5.575080078125,0.10151934623718262,-0.6000232696533203,-0.1967819184064865
1664206382301036000,5.5850361328125,0.1379700005054474,-0.6174272894859314,-0.23209881782531738
1664206382310991400,5.594991455078125,0.15774716436862946,-0.6130940318107605,-0.2166365087032318
1664206382320947200,5.604947265625,0.16486293077468872,-0.5797494649887085,-0.16786062717437744
1664206382330903300,5.6149033203125,0.15289440751075745,-0.5143597722053528,-0.10777837783098221
1664206382340859100,5.624859130859375,0.11276400834321976,-0.41798287630081177,-0.06535119563341141
1664206382350815000,5.63481494140625,0.055942270904779434,-0.3347066342830658,-0.05514835566282272
1664206382360771000,5.64477099609375,0.009371321648359299,-0.30515730381011963,-0.07746576517820358
1664206382370727200,5.65472705078125,-0.020426787436008453,-0.32673823833465576,-0.09348733723163605
1664206382380683300,5.664683349609375,-0.047358009964227676,-0.366460382938385,-0.09428030997514725
1664206382390639000,5.67463916015625,-0.09327596426010132,-0.37728720903396606,-0.0604696124792099
1664206382400595200,5.68459521484375,-0.13943305611610413,-0.3449140191078186,0.0019954009912908077
1664206382410550500,5.694550537109375,-0.18062150478363037,-0.27288883924484253,0.08398294448852539
1664206382420506600,5.704506591796875,-0.21936866641044617,-0.17372538149356842,0.18513841927051544
1664206382430462700,5.714462646484375,-0.24930258095264435,-0.0929088220000267,0.3048911690711975
1664206382440418800,5.724418701171875,-0.2786130905151367,-0.0849667564034462,0.4128055274486542
1664206382450374700,5.734374755859375,-0.29711806774139404,-0.18275323510169983,0.4982011020183563
1664206382460330800,5.744330810546875,-0.31349197030067444,-0.3414449691772461,0.5564523339271545
1664206382470286600,5.75428662109375,-0.3586687743663788,-0.5002349019050598,0.5862634778022766
1664206382480242700,5.76424267578125,-0.4379366934299469,-0.627200186252594,0.6041909456253052
1664206382490197800,5.77419775390625,-0.5693703293800354,-0.6530174016952515,0.6332657337188721
1664206382500153900,5.78415380859375,-0.7104856967926025,-0.5683203339576721,0.64220130443573
1664206382510109700,5.794109619140625,-0.8173532485961914,-0.461069792509079,0.6146711707115173
1664206382520065800,5.804065673828125,-0.8782173991203308,-0.43931230902671814,0.5412262082099915
1664206382530021600,5.814021728515625,-0.9277200102806091,-0.5829924941062927,0.4384220838546753
1664206382539977700,5.823977783203125,-0.9815155267715454,-0.8838275671005249,0.3271312713623047
1664206382549933600,5.83393359375,-1.0519825220108032,-1.2555159330368042,0.2042575478553772
1664206382559890000,5.843889892578125,-1.1650400161743164,-1.597388505935669,0.054165638983249664
1664206382569845800,5.853845703125,-1.30875563621521,-1.7819807529449463,-0.1434267908334732
1664206382579801600,5.863801513671875,-1.4171375036239624,-1.7811235189437866,-0.3746190071105957
1664206382589757700,5.8737578125,-1.5099657773971558,-1.6124001741409302,-0.6004034280776978
1664206382599713500,5.883713623046875,-1.5575865507125854,-1.37831711769104,-0.7591939568519592
1664206382609669600,5.893669677734375,-1.550459384918213,-1.2000755071640015,-0.8211936950683594
1664206382619625500,5.90362548828125,-1.4942430257797241,-1.1331948041915894,-0.7603158354759216
1664206382629581600,5.91358154296875,-1.4289731979370117,-1.218635082244873,-0.5696181058883667
1664206382639537700,5.92353759765625,-1.3570624589920044,-1.414467453956604,-0.2695513367652893
1664206382649493800,5.93349365234375,-1.2728357315063477,-1.63615882396698,0.08963877707719803
1664206382659449600,5.94344970703125,-1.1898568868637085,-1.793879747390747,0.42345982789993286
1664206382669405700,5.95340576171875,-1.1208034753799438,-1.844404697418213,0.6846176981925964
1664206382679361500,5.963361572265625,-1.0369995832443237,-1.7977261543273926,0.8507218956947327
1664206382689316900,5.97331689453125,-0.953683078289032,-1.694520354270935,0.9315935373306274
1664206382699272700,5.983272705078125,-0.8770447373390198,-1.6040879487991333,0.9772118926048279
1664206382709228800,5.993228759765625,-0.80162113904953,-1.5764861106872559,1.0324621200561523
1664206382719184600,6.0031845703125,-0.7222195267677307,-1.6131914854049683,1.1130938529968262
1664206382729140700,6.013140625,-0.618939995765686,-1.7208194732666016,1.227300763130188
1664206382739096600,6.0230966796875,-0.534354567527771,-1.988993763923645,1.3147540092468262
1664206382749052700,6.033052734375,-0.4835475981235504,-2.3788247108459473,1.352267861366272
1664206382759008800,6.0430087890625,-0.4463070034980774,-2.7405309677124023,1.3246411085128784
1664206382768964900,6.05296484375,-0.3991411030292511,-3.0031847953796387,1.2014025449752808
1664206382778920700,6.062920654296875,-0.3000984191894531,-3.146221876144409,1.0017868280410767
1664206382788876800,6.072876708984375,-0.1758859008550644,-3.1736080646514893,0.7279967665672302
1664206382798832600,6.08283251953125,0.0082637257874012,-3.1462862491607666,0.43686720728874207
1664206382808788700,6.092788818359375,0.24129006266593933,-3.185598611831665,0.2321510910987854
1664206382818744600,6.10274462890625,0.48332637548446655,-3.408601999282837,0.13553014397621155
1664206382828700700,6.11270068359375,0.7227339148521423,-3.756375789642334,0.04840722307562828
1664206382838656800,6.12265673828125,0.959678590297699,-4.081581115722656,-0.13520269095897675
1664206382848612900,6.13261279296875,1.113749623298645,-4.499505996704102,-0.4376709461212158
1664206382858568700,6.142568603515625,1.165742039680481,-5.095040798187256,-0.8236076235771179
1664206382868523500,6.1525234375,1.1971838474273682,-5.519522666931152,-1.285606026649475
1664206382878479600,6.162479736328125,1.2481255531311035,-5.607728958129883,-1.7207344770431519
1664206382888435700,6.172435791015625,1.2848495244979858,-5.437410354614258,-1.98493230342865
1664206382898391800,6.182391845703125,1.3334646224975586,-5.169676303863525,-2.015717029571533
1664206382908347600,6.19234765625,1.4328479766845703,-4.958121299743652,-1.902522087097168
1664206382918303700,6.2023037109375,1.5746653079986572,-4.759542942047119,-1.8981153964996338
1664206382928259600,6.212259521484375,1.5702426433563232,-4.580677509307861,-2.0515635013580322
1664206382938215700,6.222215576171875,1.2975926399230957,-4.6902337074279785,-2.273308277130127
1664206382948171500,6.232171630859375,0.9954825639724731,-4.9686713218688965,-2.4855797290802
1664206382958127600,6.242127685546875,0.8620877861976624,-5.107603073120117,-2.5820484161376953
1664206382968083700,6.252083740234375,0.8936374187469482,-5.107507228851318,-2.4988996982574463
1664206382978039800,6.262039794921875,1.044150471687317,-5.116118431091309,-2.2202529907226562
1664206382987995600,6.27199560546875,1.3170394897460938,-5.227768898010254,-1.867396593093872
1664206382997951700,6.28195166015625,1.5291098356246948,-5.567438125610352,-1.9504132270812988
1664206383007907600,6.291907470703125,1.4300931692123413,-5.912949085235596,-2.6891379356384277
1664206383017863700,6.30186376953125,1.0939154624938965,-5.962372303009033,-3.853231430053711
1664206383027819500,6.311819580078125,0.6101405620574951,-5.51171875,-5.098846912384033
1664206383037776000,6.32177587890625,0.10428696125745773,-4.274354457855225,-6.050570487976074
1664206383047730700,6.331730712890625,-0.3846886157989502,-2.5890462398529053,-6.4732561111450195
1664206383057686500,6.3416865234375,-0.8571539521217346,-0.8880261778831482,-6.2663397789001465
1664206383067642600,6.351642578125,-1.2461730241775513,0.32030755281448364,-5.426773548126221
1664206383077598500,6.361598388671875,-1.551933765411377,0.7603968381881714,-4.075865745544434
1664206383087554800,6.371554931640625,-1.724541187286377,0.44828104972839355,-2.475008726119995
1664206383097510700,6.3815107421875,-1.6769044399261475,-0.4456848204135895,-0.9851675033569336
1664206383107466800,6.391466796875,-1.3706568479537964,-1.5841851234436035,-0.06072888895869255
1664206383117422600,6.401422607421875,-0.8419727683067322,-2.4429023265838623,0.11480582505464554
1664206383127378700,6.411378662109375,-0.21909725666046143,-2.746147632598877,-0.2789659798145294
1664206383137334500,6.42133447265625,0.3705870509147644,-2.566884756088257,-0.9519052505493164
1664206383147290600,6.43129052734375,0.8369600772857666,-2.1613171100616455,-1.6341578960418701
1664206383157246500,6.44124658203125,1.16092848777771,-1.7093801498413086,-2.1601030826568604
1664206383167202800,6.451202880859375,1.1459609270095825,-1.3635295629501343,-2.437906265258789
1664206383177158700,6.46115869140625,0.7569501399993896,-1.3437281847000122,-2.4251503944396973
1664206383187114800,6.47111474609375,0.3184417486190796,-1.5464909076690674,-2.194176197052002
1664206383197070600,6.481070556640625,-0.039079032838344574,-1.829423189163208,-1.870985746383667
1664206383207026700,6.491026611328125,-0.20248793065547943,-2.1108100414276123,-1.5662117004394531
1664206383216982500,6.500982421875,-0.1722368448972702,-2.306312084197998,-1.2817561626434326
1664206383226938600,6.510938720703125,-0.08980295807123184,-2.4400813579559326,-1.0051730871200562
1664206383236893700,6.520893798828125,0.01221318356692791,-2.626152753829956,-0.7045141458511353
1664206383246849800,6.530849853515625,0.1559959203004837,-2.9080417156219482,-0.43145087361335754
1664206383256805600,6.5408056640625,0.4700302481651306,-3.2009060382843018,-0.36837005615234375
1664206383266761700,6.55076171875,0.953796923160553,-3.328608512878418,-0.7637176513671875
1664206383276717600,6.560717529296875,1.4681284427642822,-3.124781370162964,-1.5856547355651855
1664206383286673700,6.570673583984375,1.9694390296936035,-2.6333155632019043,-2.5778284072875977
1664206383296629800,6.580629638671875,2.388545274734497,-2.041965961456299,-3.454864978790283
1664206383306585900,6.5905859375,2.6915814876556396,-1.498650312423706,-3.945200204849243
1664206383316541700,6.600541748046875,2.87626051902771,-1.148425579071045,-3.9687225818634033
1664206383326497800,6.610497802734375,2.9519762992858887,-1.079702377319336,-3.575753927230835
1664206383336453600,6.62045361328125,2.9520928859710693,-1.3351686000823975,-2.8624861240386963
1664206383346409500,6.630409423828125,2.6864523887634277,-1.845143437385559,-1.9599114656448364
1664206383356365600,6.640365478515625,1.9771599769592285,-2.596529483795166,-0.9501100182533264
1664206383366321700,6.65032177734375,1.263421893119812,-3.562605381011963,0.023126525804400444
1664206383376277800,6.66027783203125,0.8294739127159119,-4.405595302581787,0.7441838383674622
1664206383386233600,6.670233642578125,0.6982071995735168,-4.838135242462158,1.0678173303604126
1664206383396189700,6.680189697265625,0.861962080001831,-4.868722438812256,0.959481418132782
1664206383406146300,6.690146240234375,1.2495887279510498,-4.605309009552002,0.48182427883148193
1664206383416102100,6.70010205078125,1.749816656112671,-4.106645584106445,-0.23296277225017548
1664206383426057200,6.71005712890625,2.2231016159057617,-3.4521431922912598,-1.0173834562301636
1664206383436013300,6.720013427734375,2.5950205326080322,-2.760331630706787,-1.7030401229858398
1664206383445969200,6.72996923828125,2.811601400375366,-2.127782106399536,-2.2155349254608154
1664206383455925200,6.73992529296875,2.873567819595337,-1.678269386291504,-2.5341596603393555
1664206383465881000,6.749881103515625,2.7695770263671875,-1.4111093282699585,-2.652374029159546
1664206383475837200,6.759837158203125,2.581780433654785,-1.2752909660339355,-2.6171019077301025
1664206383485793000,6.76979296875,2.39493465423584,-1.2075247764587402,-2.4859156608581543
1664206383495749000,6.7797490234375,2.267118453979492,-1.1296266317367554,-2.3031959533691406
1664206383505705200,6.789705322265625,2.2236480712890625,-1.0599911212921143,-2.1329524517059326
1664206383515661300,6.799661376953125,2.2479915618896484,-0.9505544900894165,-1.97989022731781
1664206383525617200,6.8096171875,2.3373525142669678,-0.8388180732727051,-1.8624999523162842
1664206383535573200,6.8195732421875,2.429680824279785,-0.7319744229316711,-1.7762278318405151
1664206383545529000,6.829529052734375,2.5334341526031494,-0.6802763342857361,-1.7259074449539185
1664206383555485200,6.839485107421875,2.6269748210906982,-0.6993780136108398,-1.7276488542556763
1664206383565441000,6.84944091796875,2.7355053424835205,-0.7263404130935669,-1.7663253545761108
1664206383575397400,6.8593974609375,2.8894879817962646,-0.7364675402641296,-1.8241864442825317
1664206383585353200,6.869353271484375,3.054680824279785,-0.6853407025337219,-1.8717249631881714
1664206383595309300,6.879309326171875,3.2235052585601807,-0.5567235946655273,-1.8766752481460571
1664206383605264100,6.88926416015625,3.3558318614959717,-0.40220907330513,-1.8565279245376587
1664206383615220200,6.89922021484375,3.4186313152313232,-0.2328784316778183,-1.8143126964569092
1664206383625176000,6.909176025390625,3.4221794605255127,-0.07913679629564285,-1.7260582447052002
1664206383635132400,6.91913232421875,3.418358564376831,0.03275798633694649,-1.5896855592727661
1664206383645088300,6.929088134765625,3.440333843231201,0.05142248049378395,-1.4041979312896729
1664206383655044400,6.93904443359375,3.4917359352111816,-0.04873420298099518,-1.2009921073913574
1664206383665000200,6.949000244140625,3.5394392013549805,-0.17912204563617706,-0.9976646304130554
1664206383674956300,6.958956298828125,3.5661818981170654,-0.3316047191619873,-0.7950674295425415
1664206383684912000,6.968912109375,3.552649736404419,-0.42701566219329834,-0.5693530440330505
1664206383694868200,6.9788681640625,3.5255327224731445,-0.48420339822769165,-0.3009208142757416
1664206383704824300,6.98882421875,3.502023696899414,-0.536781907081604,-0.02368626743555069
1664206383714780400,6.998780517578125,3.4600565433502197,-0.560032844543457,0.23653316497802734
1664206383724736300,7.008736328125,3.3992600440979004,-0.5155345797538757,0.4375280439853668
1664206383734692400,7.0186923828125,3.380074977874756,-0.005841298960149288,0.24970676004886627
1664206383744648200,7.028648193359375,3.1732983589172363,-0.16550660133361816,-0.0075980136170983315
1664206383754604000,7.03860400390625,3.0316050052642822,-0.3905118405818939,-0.00036834273487329483
1664206383764560100,7.04856005859375,3.004678964614868,-0.4384700357913971,0.10039182007312775
1664206383774516200,7.05851611328125,2.9661781787872314,-0.41211026906967163,0.11299955099821091
1664206383784471300,7.06847119140625,2.8921587467193604,-0.35411274433135986,0.0497681200504303
1664206383794427100,7.07842724609375,2.7957639694213867,-0.24223296344280243,-0.03712473437190056
1664206383804383200,7.08838330078125,2.671447277069092,-0.10085771977901459,-0.11903611570596695
1664206383814339000,7.098339111328125,2.4989800453186035,0.04721732437610626,-0.16856037080287933
1664206383824295200,7.108295166015625,2.227154493331909,0.20826905965805054,-0.15284372866153717
1664206383834251300,7.118251220703125,1.8843573331832886,0.3166900873184204,-0.10022125393152237
1664206383844207400,7.128207275390625,1.5538330078125,0.39466556906700134,-0.023771487176418304
1664206383854163200,7.1381630859375,1.2265448570251465,0.46205300092697144,0.07426290214061737
1664206383864119300,7.148119384765625,0.9513827562332153,0.4913877248764038,0.20776157081127167
1664206383874075100,7.1580751953125,0.744411289691925,0.5023372769355774,0.37758776545524597
1664206383884031200,7.16803125,0.5590435266494751,0.46091338992118835,0.5560856461524963
1664206383893987000,7.177987060546875,0.3680484890937805,0.31496477127075195,0.6984387040138245
1664206383903943400,7.187943359375,0.03354428708553314,0.09484491497278214,0.8305522799491882
1664206383913899300,7.197899169921875,-0.4961422085762024,-0.1679852455854416,0.9472763538360596
1664206383923855400,7.20785546875,-1.1472936868667603,-0.33624401688575745,1.0227465629577637
1664206383933811200,7.217811279296875,-1.788651466369629,-0.3950115442276001,1.0310665369033813
1664206383943767300,7.227767333984375,-2.3276140689849854,-0.3713805079460144,0.9839730858802795
1664206383953723100,7.23772314453125,-2.76149845123291,-0.2528201937675476,0.9450489282608032
1664206383963679200,7.24767919921875,-3.093330144882202,-0.11651909351348877,0.9353938698768616
1664206383973634300,7.25763427734375,-3.38891863822937,-0.0009869690984487534,0.9525485634803772
1664206383983590100,7.267590087890625,-3.7191648483276367,0.01046142727136612,1.0037906169891357
1664206383993546200,7.277546142578125,-4.10657262802124,-0.11813431978225708,1.0684540271759033
1664206384003502000,7.287502197265625,-4.518666744232178,-0.3217042088508606,1.1142215728759766
1664206384013458200,7.297458251953125,-4.899474620819092,-0.5227370858192444,1.1552257537841797
1664206384023414000,7.3074140625,-5.244932651519775,-0.6352127194404602,1.1923643350601196
1664206384033370400,7.317370361328125,-5.543625354766846,-0.6398499608039856,1.2258126735687256
1664206384043326200,7.327326171875,-5.83130407333374,-0.5488907694816589,1.1831717491149902
1664206384053282300,7.3372822265625,-6.068625450134277,-0.3483056426048279,1.1442574262619019
1664206384063238100,7.347238037109375,-6.186084270477295,-0.07665682584047318,1.1985994577407837
1664206384073194200,7.3571943359375,-6.150120735168457,0.18831905722618103,1.3685886859893799
1664206384083150000,7.367150146484375,-6.013078212738037,0.37435683608055115,1.5925801992416382
1664206384093106200,7.377106201171875,-5.845058917999268,0.4579080641269684,1.8284143209457397
1664206384103062300,7.387062255859375,-5.688933849334717,0.38382983207702637,2.0335052013397217
1664206384113018400,7.397018310546875,-5.557192325592041,0.21213296055793762,2.20597767829895
1664206384122974200,7.40697412109375,-5.456730365753174,-0.035951413214206696,2.3319478034973145
1664206384132930300,7.416930419921875,-5.3785400390625,-0.38795778155326843,2.4388427734375
1664206384142886100,7.42688623046875,-5.303915023803711,-0.7495324611663818,2.5425384044647217
1664206384152841200,7.43684130859375,-5.221518039703369,-1.0603516101837158,2.650109052658081
1664206384162797300,7.44679736328125,-5.102359771728516,-1.279541015625,2.752615451812744
1664206384172753400,7.45675341796875,-4.97452449798584,-1.4540455341339111,2.8147034645080566
1664206384182709200,7.466709228515625,-4.85915470123291,-1.5549609661102295,2.7966232299804688
1664206384192665000,7.4766650390625,-4.738753795623779,-1.537745714187622,2.681548833847046
1664206384202621200,7.48662109375,-4.555837631225586,-1.3575447797775269,2.534813642501831
1664206384212577000,7.496576904296875,-4.28324556350708,-1.1252139806747437,2.406832218170166
1664206384222533000,7.506533203125,-3.9214165210723877,-0.9279888868331909,2.302420139312744
1664206384232489200,7.5164892578125,-3.4576354026794434,-0.7816040515899658,2.2334134578704834
1664206384242445300,7.5264453125,-2.9176080226898193,-0.7010359764099121,2.225938320159912
1664206384252401200,7.536401123046875,-2.3292806148529053,-0.6240989565849304,2.22676944732666
1664206384262357200,7.546357177734375,-1.675573706626892,-0.6158127784729004,2.222670316696167
1664206384272313000,7.55631298828125,-1.1165562868118286,-0.5088144540786743,2.2073476314544678
1664206384282269200,7.566269287109375,-0.746183454990387,-0.33981797099113464,2.1854825019836426
1664206384292225000,7.57622509765625,-0.5031103491783142,-0.23426973819732666,2.176023244857788
1664206384302181000,7.58618115234375,-0.349727988243103,-0.2333594709634781,2.1618144512176514
1664206384312137200,7.59613720703125,-0.09570399671792984,-0.3587789833545685,2.183511734008789
1664206384322093300,7.60609326171875,0.3202119767665863,-0.6246516108512878,2.2500312328338623
1664206384332049200,7.616049072265625,0.8246858716011047,-0.8431846499443054,2.273601770401001
1664206384342004200,7.626004150390625,1.3593369722366333,-0.9676823616027832,2.224030017852783
1664206384351960000,7.6359599609375,1.756321907043457,-0.9415949583053589,2.1360929012298584
1664206384361916400,7.64591650390625,1.9769346714019775,-0.19545286893844604,1.9459446668624878
1664206384371872300,7.655872314453125,2.098928213119507,0.38867828249931335,1.680526852607727
1664206384381828400,7.665828369140625,2.2589221000671387,0.8158836960792542,1.3079239130020142
1664206384391784200,7.6757841796875,2.4507384300231934,1.1812889575958252,0.8707605004310608
1664206384401740300,7.685740234375,2.6693432331085205,1.3794342279434204,0.4469437003135681
1664206384411697200,7.695697265625,2.9741904735565186,1.4320998191833496,0.09907113760709763
1664206384421653200,7.7056533203125,3.2859880924224854,1.3236048221588135,-0.1749417632818222
1664206384431609000,7.715609130859375,3.560880422592163,1.1180322170257568,-0.3778282701969147
1664206384441565200,7.725565185546875,3.784313917160034,0.9880151152610779,-0.5112534165382385
1664206384451521300,7.735521240234375,3.929140090942383,0.9488695859909058,-0.601477861404419
1664206384461477400,7.745477294921875,3.945042371749878,0.9698683023452759,-0.6481654644012451
1664206384471433200,7.75543310546875,3.841125726699829,0.8801090717315674,-0.6536620259284973
1664206384481389300,7.765389404296875,3.746835708618164,0.68309485912323,-0.7039622068405151
1664206384491345200,7.77534521484375,3.756819725036621,0.43758347630500793,-0.8605479001998901
1664206384501301200,7.78530126953125,3.836912155151367,0.34691643714904785,-1.158880591392517
1664206384511257000,7.795257080078125,3.901336431503296,0.5023079514503479,-1.6119333505630493
1664206384521212200,7.805212158203125,3.944354295730591,0.7948242425918579,-2.157702922821045
1664206384531168300,7.815168212890625,3.9482829570770264,1.2415491342544556,-2.723672866821289
1664206384541124000,7.8251240234375,3.8470757007598877,1.7103264331817627,-3.239711046218872
1664206384551080200,7.835080078125,3.7029898166656494,2.005610227584839,-3.6177799701690674
1664206384561036000,7.8450361328125,3.490264892578125,2.0779685974121094,-3.780881404876709
1664206384570992000,7.8549921875,3.1100358963012695,1.9635965824127197,-3.6740057468414307
1664206384580948200,7.8649482421875,2.6269543170928955,1.7426666021347046,-3.274639129638672
1664206384590904300,7.874904296875,2.128232479095459,1.4970346689224243,-2.6950831413269043
1664206384600860200,7.884860107421875,1.7325804233551025,1.2457102537155151,-2.0591585636138916
1664206384610816300,7.894816162109375,1.4456980228424072,1.0460731983184814,-1.4758180379867554
1664206384620772000,7.904772216796875,1.1623342037200928,0.9237304925918579,-1.0536439418792725
1664206384630728200,7.914728271484375,0.8181205987930298,0.8541481494903564,-0.8468169569969177
1664206384640684000,7.92468408203125,0.45271092653274536,0.8339435458183289,-0.8435415029525757
1664206384650640100,7.93464013671875,0.1344487965106964,0.8507117629051208,-0.9926996827125549
1664206384660596200,7.94459619140625,-0.08894513547420502,0.8569850921630859,-1.2187954187393188
1664206384670552300,7.95455224609375,-0.22371730208396912,0.7957063913345337,-1.4295432567596436
1664206384680508200,7.964508056640625,-0.2742508053779602,0.7216614484786987,-1.5625444650650024
1664206384690464300,7.97446435546875,-0.25865164399147034,0.6681942939758301,-1.5943535566329956
1664206384700420000,7.984420166015625,-0.22027282416820526,0.6264891624450684,-1.5896378755569458
1664206384710375200,7.994375244140625,-0.16756001114845276,0.54440838098526,-1.602481484413147
1664206384720331300,8.004331298828125,-0.06733566522598267,0.44747060537338257,-1.6416571140289307
1664206384730287000,8.014287109375,0.06794410943984985,0.3965318500995636,-1.7585959434509277
1664206384740243200,8.0242431640625,0.2603481709957123,0.4506707191467285,-1.9275943040847778
1664206384750199000,8.034198974609374,0.4600045382976532,0.6617912650108337,-2.086294651031494
1664206384760155100,8.044155029296874,0.5884919762611389,0.9844175577163696,-2.160719156265259
1664206384770111000,8.054111083984376,0.645797610282898,1.2843363285064697,-2.0642223358154297
1664206384780067300,8.0640673828125,0.6562609076499939,1.4344230890274048,-1.7772877216339111
1664206384790023200,8.074023193359375,0.5967227220535278,1.363065481185913,-1.382412314414978
1664206384799979300,8.083979248046875,0.3442137539386749,0.9681860208511353,-0.952737033367157
1664206384809935000,8.09393505859375,-0.11678101867437363,0.18814344704151154,-0.5024325251579285
1664206384819891200,8.10389111328125,-0.5342068076133728,-0.6944195628166199,-0.025844912976026535
1664206384829847000,8.113846923828126,-0.7913205623626709,-1.229278326034546,0.3672388792037964
1664206384839803100,8.12380322265625,-0.9461687207221985,-1.160003900527954,0.6015968322753906
1664206384849759000,8.133759033203125,-1.1074012517929077,-0.46311765909194946,0.6715959906578064
1664206384859715300,8.14371533203125,-1.4189176559448242,0.510480523109436,0.5741192102432251
1664206384869671200,8.153671142578125,-1.921725869178772,1.3089922666549683,0.4288858473300934
1664206384879627300,8.163627197265624,-2.6140897274017334,1.3324499130249023,0.3057396709918976
1664206384889583000,8.1735830078125,-3.479281425476074,0.6006179451942444,0.3475489020347595
1664206384899539200,8.183539306640625,-4.181306838989258,-0.32956621050834656,0.5802335739135742
1664206384909494300,8.193494384765625,-4.523065567016602,-0.8513549566268921,0.8556203842163086
1664206384919450400,8.203450439453125,-4.677530288696289,-0.8250961899757385,1.0039880275726318
1664206384929406200,8.21340625,-5.108124256134033,-0.38909009099006653,0.84000164270401
1664206384939362300,8.2233623046875,-5.92294454574585,0.17679941654205322,0.3205944299697876
1664206384949318100,8.233318115234376,-6.725980281829834,0.8988173604011536,-0.16784878075122833
1664206384959274200,8.243274169921875,-7.276608467102051,1.6045873165130615,-0.2880420386791229
1664206384969230000,8.25322998046875,-7.632194519042969,1.9997183084487915,0.040444016456604004
1664206384979186200,8.263186279296875,-7.863077640533447,1.9474828243255615,0.7102841734886169
1664206384989142300,8.273142333984374,-7.934633731842041,1.5748940706253052,1.5156861543655396
1664206384999098000,8.28309814453125,-7.902204990386963,1.170111894607544,2.2751355171203613
1664206385009054200,8.29305419921875,-7.772291660308838,0.8844627737998962,2.909284830093384
1664206385019010000,8.303010009765625,-7.492213249206543,0.7275887727737427,3.360795259475708
1664206385028966100,8.312966064453125,-7.140284061431885,0.8002472519874573,3.6149120330810547
1664206385038922000,8.322921875,-6.808454513549805,1.1152329444885254,3.66062593460083
1664206385048878000,8.332878173828124,-6.303253650665283,1.2969000339508057,3.572922468185425
1664206385058834200,8.342834228515626,-5.438031196594238,0.933975338935852,3.602198839187622
1664206385068790300,8.352790283203126,-4.306715488433838,0.08583839237689972,3.861449718475342
1664206385078746000,8.36274609375,-3.06931209564209,-0.7030050754547119,4.14977502822876
1664206385088701200,8.372701171875,-2.086135149002075,-0.8355543613433838,4.032154083251953
1664206385098657000,8.382656982421874,-1.271150827407837,-0.4296098053455353,3.4410929679870605
1664206385108613400,8.39261328125,-0.4092152714729309,0.2377500832080841,2.5628905296325684
1664206385118569200,8.4025693359375,0.5048692226409912,0.8572285175323486,1.6084136962890625
1664206385128525300,8.412525390625,1.5404114723205566,1.1982723474502563,0.8525345921516418
1664206385138481200,8.422481201171875,2.599125385284424,1.1551167964935303,0.39737561345100403
1664206385148437200,8.432437255859375,3.546375036239624,0.8435735702514648,0.20098455250263214
1664206385158393000,8.44239306640625,4.228189945220947,0.4894578158855438,0.1831190139055252
1664206385168349200,8.45234912109375,4.590709209442139,0.21609994769096375,0.22245454788208008
1664206385178305000,8.462304931640626,4.731067657470703,0.06236737221479416,0.20238922536373138
1664206385188261400,8.472261474609375,4.73598575592041,0.008865593001246452,0.028295427560806274
1664206385198217200,8.48221728515625,4.732160568237305,0.031634822487831116,-0.3526894748210907
1664206385208173300,8.49217333984375,4.925130844116211,0.014490512199699879,-0.8851541876792908
1664206385218129200,8.502129150390624,5.393149375915527,-0.10875685513019562,-1.48613703250885
1664206385228085200,8.512085205078124,5.999787330627441,-0.3131183087825775,-2.0912671089172363
1664206385238041000,8.522041015625,6.581784248352051,-0.5075490474700928,-2.7035622596740723
1664206385247997200,8.5319970703125,6.912417888641357,-0.6886471509933472,-3.3229422569274902
1664206385257953300,8.541953369140625,6.990917205810547,-0.7076290845870972,-3.7384235858917236
1664206385267908000,8.551908203125,6.821483135223389,-0.5306717157363892,-3.8999319076538086
1664206385277864200,8.5618642578125,6.560606002807617,-0.3250596523284912,-3.906374454498291
1664206385287820000,8.571820068359376,6.515349864959717,-0.2013721466064453,-3.8693506717681885
1664206385297776000,8.581776123046875,6.5729756355285645,-0.07698787748813629,-4.042820453643799
1664206385307732200,8.591732177734375,6.348939895629883,0.23823770880699158,-4.463221549987793
1664206385317688300,8.601688232421875,5.711282253265381,0.5693709254264832,-4.9397501945495605
1664206385327644200,8.61164404296875,4.744462013244629,0.7574324607849121,-5.103161334991455
1664206385337600300,8.621600341796874,3.7822425365448,0.8473769426345825,-4.827350616455078
1664206385347556000,8.63155615234375,3.135298728942871,0.8238545060157776,-4.159170150756836
1664206385357512200,8.64151220703125,2.7891080379486084,0.5549649596214294,-3.2271878719329834
1664206385367468000,8.651468017578125,2.5750207901000977,0.13819698989391327,-2.2300984859466553
1664206385377424100,8.661424072265625,2.411682605743408,-0.19940635561943054,-1.342362403869629
1664206385387380200,8.671380126953125,2.309311628341675,-0.35451018810272217,-0.7200973629951477
1664206385397336300,8.68133642578125,2.2534048557281494,-0.35496771335601807,-0.4236377775669098
1664206385407291600,8.691291748046876,2.1797854900360107,-0.2390366643667221,-0.46340909600257874
1664206385417247700,8.701247802734375,2.0396649837493896,-0.08400394767522812,-0.7682358026504517
1664206385427203600,8.71120361328125,1.859663724899292,0.06705237925052643,-1.1499050855636597
1664206385437159700,8.72115966796875,1.688703179359436,0.26914796233177185,-1.448465347290039
1664206385447115800,8.73111572265625,1.5084575414657593,0.5376285314559937,-1.637366533279419
1664206385457070600,8.741070556640626,1.268483281135559,0.7588570713996887,-1.6552443504333496
1664206385467026700,8.751026611328125,0.960431694984436,0.8482958078384399,-1.4666833877563477
1664206385476982500,8.760982421875,0.6193808913230896,0.7508366107940674,-1.1524405479431152
1664206385486938600,8.770938720703125,0.26825591921806335,0.5005932450294495,-0.8915809988975525
1664206385496894700,8.780894775390625,-0.045022379606962204,0.21858157217502594,-0.7890197038650513
1664206385506850800,8.790850830078124,-0.2995412051677704,0.06710778921842575,-0.8888057470321655
1664206385516806700,8.800806640625,-0.5485427975654602,0.1895463466644287,-1.1438950300216675
1664206385526762800,8.8107626953125,-0.8040332198143005,0.5070961713790894,-1.4041516780853271
1664206385536718600,8.820718505859375,-1.0534334182739258,0.872187614440918,-1.50751531124115
1664206385546674700,8.8306748046875,-1.3224233388900757,1.1853110790252686,-1.371661901473999
1664206385556630500,8.840630615234375,-1.5728414058685303,1.2862952947616577,-1.009214997291565
1664206385566586600,8.850586669921874,-1.8217521905899048,1.083885669708252,-0.5280044674873352
1664206385576542700,8.860542724609376,-2.174145460128784,0.6958966255187988,-0.07480932027101517
1664206385586498800,8.870498779296875,-2.5593273639678955,0.3846871554851532,0.25639477372169495
1664206385596454700,8.88045458984375,-2.889702081680298,0.3514604866504669,0.43151602149009705
1664206385606410800,8.89041064453125,-3.131882905960083,0.6081558465957642,0.46085014939308167
1664206385616366600,8.90036669921875,-3.327298879623413,1.0146427154541016,0.4541613459587097
1664206385626322700,8.91032275390625,-3.547292947769165,1.3905787467956543,0.4772074520587921
1664206385636278500,8.920278564453126,-3.863208055496216,1.560508370399475,0.585512638092041
1664206385646234600,8.930234619140625,-4.435596466064453,1.4554111957550049,0.7875261306762695
1664206385656190700,8.940190673828125,-5.04198694229126,1.1651452779769897,1.0724883079528809
1664206385666145500,8.9501455078125,-5.10617733001709,1.0063434839248657,1.5631685256958008
1664206385676101600,8.9601015625,-4.934199810028076,0.8891936540603638,2.0951857566833496
1664206385686057500,8.970057373046876,-5.310657501220703,0.7298377156257629,2.436072587966919
1664206385696013600,8.980013671875,-6.122539520263672,0.6063519716262817,2.3950531482696533
1664206385705969700,8.9899697265625,-6.715216636657715,0.8139801025390625,2.161801338195801
1664206385715925800,8.99992578125,-6.827671527862549,1.1725116968154907,2.005671262741089
1664206385725881600,9.009881591796875,-6.6843976974487305,1.3387588262557983,2.0213944911956787
1664206385735837700,9.019837646484374,-6.497030258178711,1.1442655324935913,2.1979446411132812
1664206385745793500,9.02979345703125,-6.292889595031738,0.7894688248634338,2.4562525749206543
1664206385755749600,9.03974951171875,-6.054072380065918,0.5040141940116882,2.6910438537597656
1664206385765705500,9.04970556640625,-5.791752815246582,0.3557492792606354,2.9028704166412354
1664206385775661800,9.059661865234375,-5.5005340576171875,0.3370102047920227,3.0979413986206055
1664206385785617700,9.06961767578125,-5.2052388191223145,0.44371747970581055,3.2728819847106934
1664206385795573800,9.07957373046875,-4.841755390167236,0.5566818714141846,3.3827106952667236
1664206385805529600,9.089529541015626,-4.330368995666504,0.604082465171814,3.4242732524871826
1664206385815485700,9.099485595703126,-3.645843029022217,0.6163660287857056,3.425384283065796
1664206385825441500,9.109441650390625,-2.885021448135376,0.5972213745117188,3.3699357509613037
1664206385835397600,9.119397705078125,-2.2236719131469727,0.6196646094322205,3.2708566188812256
1664206385845353700,9.129353759765625,-1.6750668287277222,0.5637631416320801,3.1039540767669678
1664206385855309800,9.139309814453124,-1.1247304677963257,0.4100273847579956,2.8660318851470947
1664206385865264600,9.1492646484375,-0.4630763530731201,0.2547699511051178,2.5028042793273926
1664206385875220700,9.159220703125,0.40831419825553894,0.2350660115480423,2.050949811935425
1664206385885176600,9.169176513671875,1.4151356220245361,0.35235461592674255,1.6240253448486328
1664206385895132700,9.179132568359375,2.340575695037842,0.5418691039085388,1.252993106842041
1664206385905088800,9.1890888671875,3.0245795249938965,0.718924880027771,0.9756277203559875
1664206385915044900,9.199044921875,3.4063072204589844,0.8235697746276855,0.7422903776168823
1664206385925000700,9.209000732421876,3.619905948638916,0.7987970113754272,0.5283854007720947
1664206385934956800,9.218956787109375,3.867386817932129,0.6480927467346191,0.3092230260372162
1664206385944912600,9.22891259765625,4.192744731903076,0.4011620879173279,-0.0029329280368983746
1664206385954868700,9.23886865234375,4.593008041381836,0.14979058504104614,-0.44626933336257935
1664206385964824600,9.248824462890624,5.115997314453125,-0.030851276591420174,-1.0082390308380127
1664206385974780700,9.25878076171875,5.6193342208862305,-0.03448648750782013,-1.588914394378662
1664206385984736800,9.26873681640625,5.9243550300598145,0.10201745480298996,-2.11780047416687
1664206385994692600,9.278692626953125,6.028128147125244,0.24952435493469238,-2.5641281604766846
1664206386004648700,9.288648681640625,6.186987400054932,0.3515397906303406,-2.912632465362549
1664206386014604500,9.2986044921875,6.516691207885742,0.40972188115119934,-3.342078924179077
1664206386024560600,9.308560546875,6.858621120452881,0.6445027589797974,-3.822035312652588
1664206386034516500,9.3185166015625,7.175076007843018,1.1028556823730469,-4.416009426116943
1664206386044471800,9.328471923828126,7.268983364105225,1.5497485399246216,-5.203397750854492
1664206386054427600,9.338427734375,6.866013050079346,1.8522700071334839,-5.910952091217041
1664206386064383700,9.3483837890625,5.923649787902832,2.00095272064209,-6.042868614196777
1664206386074339600,9.358339599609375,4.671486854553223,1.7872834205627441,-5.359221458435059
1664206386084295700,9.368295654296874,3.512045383453369,1.3131591081619263,-4.101655960083008
1664206386094251500,9.37825146484375,2.8087949752807617,0.7044392228126526,-2.7469751834869385
1664206386104208000,9.388207763671875,2.4739558696746826,0.21051624417304993,-1.6468290090560913
1664206386114163700,9.398163818359375,2.243941307067871,0.11449996381998062,-1.071372628211975
1664206386124119800,9.408119873046875,1.9549753665924072,0.4383138418197632,-1.0843725204467773
1664206386134075600,9.41807568359375,1.6312774419784546,0.8803197741508484,-1.487924575805664
1664206386144031700,9.42803173828125,1.3607791662216187,1.2485839128494263,-1.9932783842086792
1664206386153987600,9.437987548828126,1.13498854637146,1.3937709331512451,-2.366002082824707
1664206386163943700,9.447943603515625,0.8906126618385315,1.3836654424667358,-2.402055263519287
1664206386173899800,9.457899658203125,0.6270199418067932,1.3202286958694458,-2.1431665420532227
1664206386183855900,9.46785595703125,0.3865220844745636,1.2561287879943848,-1.6900428533554077
1664206386193811700,9.477811767578125,0.22896601259708405,1.1621557474136353,-1.179422378540039
1664206386203767800,9.487767822265624,0.1397051066160202,1.0404505729675293,-0.7396993637084961
1664206386213723600,9.4977236328125,0.060841720551252365,0.8571737408638,-0.44683578610420227
1664206386223679700,9.5076796875,-0.0625414326786995,0.6502161622047424,-0.2954362630844116
1664206386233635600,9.517635498046875,-0.22406908869743347,0.48068171739578247,-0.26686185598373413
1664206386243591700,9.527591796875,-0.4178430736064911,0.4196816086769104,-0.3474602997303009
1664206386253546800,9.537546630859374,-0.6043599247932434,0.4594423472881317,-0.4928601086139679
1664206386263502600,9.547502685546876,-0.7755077481269836,0.566703200340271,-0.6166301369667053
1664206386273458700,9.557458740234376,-0.9852674007415771,0.7107259035110474,-0.6784908771514893
1664206386283414500,9.56741455078125,-1.1946837902069092,0.8075482845306396,-0.6828035116195679
1664206386293370600,9.57737060546875,-1.3183248043060303,0.7816618084907532,-0.6257860660552979
1664206386303326700,9.58732666015625,-1.383080005645752,0.6467710733413696,-0.5201603174209595
1664206386313282800,9.59728271484375,-1.510394811630249,0.43200546503067017,-0.4113827645778656
1664206386323238700,9.60723876953125,-1.6414127349853516,0.18254321813583374,-0.3146745562553406
1664206386333194800,9.61719482421875,-1.6137683391571045,0.03752957656979561,-0.23286864161491394
1664206386343150600,9.627150634765625,-1.4002065658569336,0.03757732734084129,-0.15068136155605316
1664206386353106700,9.637106689453125,-1.1377428770065308,0.1260715126991272,-0.020299389958381653
1664206386363062500,9.6470625,-0.9774709939956665,0.15948539972305298,0.20624947547912598
1664206386373018600,9.6570185546875,-0.9053312540054321,0.016429176554083824,0.6047374606132507
1664206386382974700,9.666974609375,-0.9940744638442993,-0.2626289427280426,1.1607228517532349
1664206386392930800,9.676930908203126,-1.5332417488098145,-0.5197201371192932,1.7048699855804443
1664206386402886700,9.68688671875,-2.64333438873291,-0.6014614701271057,2.1674535274505615
1664206386412842200,9.69684228515625,-3.279691219329834,-0.5731009244918823,2.715247869491577
1664206386422798300,9.70679833984375,-3.5855607986450195,-0.6155024170875549,3.1312520503997803
1664206386432754200,9.716754150390624,-4.66611385345459,-0.5162597298622131,3.08259916305542
1664206386442710300,9.726710205078126,-6.280048370361328,-0.059477996081113815,2.329489231109619
1664206386452665300,9.736665283203125,-7.235429286956787,0.8609078526496887,1.3644847869873047
1664206386462621200,9.74662109375,-7.2497782707214355,1.839273452758789,0.7732574343681335
1664206386472577300,9.756577392578125,-6.865687370300293,2.388446807861328,0.7815412282943726
1664206386482533000,9.766533203125,-6.555136203765869,2.3962440490722656,1.33595871925354
1664206386492489200,9.7764892578125,-6.392853260040283,2.017822504043579,2.187687873840332
1664206386502445300,9.7864453125,-6.225237846374512,1.494123935699463,3.0998740196228027
1664206386512401400,9.7964013671875,-6.031248092651367,1.1334965229034424,3.9131906032562256
1664206386522357200,9.806357177734375,-5.7598185539245605,1.0033239126205444,4.524492263793945
1664206386532313300,9.816313232421875,-5.367077827453613,0.9544624090194702,4.872539520263672
1664206386542269200,9.826269287109374,-4.778022766113281,0.916612982749939,4.977865219116211
1664206386552225300,9.836225341796874,-3.9253599643707275,0.7946937084197998,4.901394844055176
1664206386562181000,9.84618115234375,-2.9262397289276123,0.5555490851402283,4.741096496582031
1664206386572137500,9.856137451171875,-2.0057733058929443,0.34236252307891846,4.546910762786865
1664206386582093300,9.86609326171875,-1.2557915449142456,0.2500804364681244,4.273390293121338
1664206386592049400,9.87604931640625,-0.6660542488098145,0.34873509407043457,3.83073353767395
1664206386602005200,9.886005126953124,-0.1180366799235344,0.6452322602272034,3.1735494136810303
1664206386611961300,9.89596142578125,0.47537899017333984,1.0345622301101685,2.3187220096588135
1664206386621917200,9.905917236328126,1.1207987070083618,1.240881323814392,1.4446897506713867
1664206386631873300,9.915873291015625,1.801063060760498,1.1961112022399902,0.7742605805397034
1664206386641828400,9.925828369140625,2.380991220474243,1.0312628746032715,0.36809131503105164
1664206386651784200,9.9357841796875,2.738032817840576,0.8879175782203674,0.16047795116901398
1664206386661740300,9.945740234375,2.9443905353546143,0.773983359336853,0.07547454535961151
1664206386671696100,9.955696044921876,3.1608359813690186,0.6511626243591309,0.025967715308070183
1664206386681652200,9.96565234375,3.486496925354004,0.5027384757995605,-0.06770381331443787
1664206386691608000,9.975608154296875,3.88450288772583,0.35150185227394104,-0.25362706184387207
1664206386701564400,9.985564453125,4.3142619132995605,0.1574503779411316,-0.5148741602897644
1664206386711520300,9.995520263671875,4.684165000915527,-0.1091432273387909,-0.8805736303329468
1664206386721476400,10.005476318359374,4.904478549957275,-0.39052894711494446,-1.3236291408538818
1664206386731432200,10.01543212890625,5.005599021911621,-0.5311555862426758,-1.7924283742904663
1664206386741388300,10.02538818359375,5.016758441925049,-0.43193671107292175,-2.240215539932251
1664206386751344000,10.03534423828125,5.0538716316223145,-0.1665591150522232,-2.706361770629883
1664206386761300200,10.04530029296875,5.244429111480713,0.016744691878557205,-3.212932586669922
1664206386771256300,10.05525634765625,5.655787467956543,0.08232556283473969,-3.7263002395629883
1664206386781212400,10.06521240234375,6.093000411987305,0.20238140225410461,-4.287202835083008
1664206386791168300,10.075168212890626,6.355517864227295,0.44487258791923523,-4.966767311096191
1664206386801124400,10.085124267578125,6.480950355529785,0.9574329853057861,-5.84075927734375
1664206386811080200,10.095080078125,6.142638206481934,1.5938328504562378,-6.744428634643555
1664206386821036300,10.105036376953125,5.087913990020752,2.064180374145508,-7.080170631408691
1664206386830992100,10.1149921875,3.534902572631836,2.2317099571228027,-6.275609493255615
1664206386840947500,10.124947509765626,2.0722060203552246,2.026296854019165,-4.566561698913574
1664206386850903300,10.1349033203125,1.1817764043807983,1.47645103931427,-2.463416814804077
1664206386860859400,10.144859375,0.7879672646522522,0.8152111172676086,-0.5503741502761841
1664206386870815200,10.154815185546875,0.616212010383606,0.3140456974506378,0.6485271453857422
1664206386880771300,10.164771240234375,0.5353462100028992,0.13106931746006012,1.010673999786377
1664206386890727200,10.17472705078125,0.5350159406661987,0.26306143403053284,0.6920844912528992
1664206386900683500,10.18468359375,0.5270331501960754,0.6063494086265564,-0.021094609051942825
1664206386910639400,10.194639404296876,0.44804245233535767,0.9930787682533264,-0.8216208815574646
1664206386920595500,10.204595458984375,0.30235719680786133,1.2941069602966309,-1.491241693496704
1664206386930551300,10.21455126953125,0.10587182641029358,1.4539722204208374,-1.8992669582366943
1664206386940507400,10.22450732421875,-0.045643460005521774,1.4515734910964966,-2.077824354171753
1664206386950463200,10.234463134765624,-0.11171861737966537,1.2859208583831787,-2.1074976921081543
1664206386960419300,10.24441943359375,-0.09702090919017792,0.9995136260986328,-2.0561606884002686
1664206386970375400,10.25437548828125,-0.07214245945215225,0.7366308569908142,-2.0099308490753174
1664206386980331300,10.264331298828125,-0.0828172117471695,0.5735167860984802,-1.9744765758514404
1664206386990287400,10.274287353515625,-0.12077364325523376,0.5271103978157043,-1.9293339252471924
1664206387000243200,10.2842431640625,-0.20225460827350616,0.5807072520256042,-1.837693214416504
1664206387010199300,10.29419921875,-0.33728405833244324,0.7227680087089539,-1.6833124160766602
1664206387020155100,10.304155029296876,-0.535781741142273,0.8867325782775879,-1.4375776052474976
1664206387030111200,10.314111328125,-0.735499382019043,0.9296568632125854,-1.1029282808303833
1664206387040067000,10.324067138671875,-0.8656325936317444,0.8062074184417725,-0.7555013298988342
1664206387050022400,10.3340224609375,-0.938663125038147,0.5863307118415833,-0.4457525610923767
1664206387059978200,10.343978271484374,-0.9775758981704712,0.3327750861644745,-0.16725154221057892
1664206387069934300,10.353934326171874,-0.9934555292129517,0.21343295276165009,0.06969095766544342
1664206387079890200,10.36389013671875,-1.003583312034607,0.1489315778017044,0.2715183198451996
1664206387089846300,10.37384619140625,-1.0789011716842651,0.037740349769592285,0.4723816514015198
1664206387099802400,10.38380224609375,-1.2436020374298096,-0.143961563706398,0.6851635575294495
1664206387109758500,10.393758544921875,-1.4621018171310425,-0.2989242374897003,0.8790105581283569
1664206387119714300,10.40371435546875,-1.6037476062774658,-0.4114310145378113,0.9927154183387756
1664206387129670400,10.41367041015625,-1.598344326019287,-0.3156498968601227,0.9935005307197571
1664206387139626200,10.423626220703126,-1.4700524806976318,-0.04728633537888527,0.9166793823242188
1664206387149582300,10.433582275390625,-1.424121379852295,0.1942269504070282,0.9338179230690002
1664206387159538200,10.4435380859375,-1.8931645154953003,0.2778896391391754,1.1390447616577148
1664206387169494300,10.453494384765625,-2.537339210510254,0.11232171207666397,1.5799826383590698
1664206387179450400,10.463450439453124,-3.0270767211914062,-0.03232833370566368,2.0939390659332275
1664206387189406500,10.473406494140624,-3.585002899169922,0.09837961196899414,2.559115409851074
1664206387199362300,10.4833623046875,-4.343039512634277,0.4914107620716095,2.8740627765655518
1664206387209318400,10.493318359375,-4.926898956298828,0.9395549893379211,3.060748815536499
1664206387219274200,10.503274169921875,-5.089575290679932,1.2912864685058594,3.263709783554077
1664206387229230300,10.513230224609375,-5.037593841552734,1.4859435558319092,3.529378890991211
1664206387239186200,10.523186279296874,-5.022208213806152,1.5804591178894043,3.788897752761841
1664206387249142500,10.533142578125,-5.050236225128174,1.608361005783081,3.9971907138824463
1664206387259097300,10.543097412109375,-4.969663619995117,1.661213755607605,4.096709728240967
1664206387269053200,10.55305322265625,-4.740805625915527,1.8126895427703857,4.04267692565918
1664206387279009300,10.56300927734375,-4.44285774230957,1.9590320587158203,3.8923983573913574
1664206387288965000,10.572965087890625,-4.083841800689697,2.0537307262420654,3.747084617614746
1664206387298921500,10.58292138671875,-3.6177778244018555,2.0722899436950684,3.618828058242798
1664206387308877300,10.592877197265626,-3.0542750358581543,2.0445330142974854,3.447620153427124
1664206387318833400,10.60283349609375,-2.4955382347106934,2.0931365489959717,3.2082996368408203
1664206387328789200,10.612789306640625,-1.9488056898117065,2.2752437591552734,2.924024820327759
1664206387338745300,10.622745361328125,-1.4967939853668213,2.444502353668213,2.6597747802734375
1664206387348701200,10.632701171875,-1.1059032678604126,2.152121067047119,2.6853461265563965
1664206387358657300,10.6426572265625,-0.6381024718284607,1.34734308719635,3.006321430206299
1664206387368613000,10.652613037109376,-0.10366810858249664,0.4114726483821869,3.394361972808838
1664206387378569500,10.662569580078125,0.44735315442085266,-0.22048357129096985,3.596088409423828
1664206387388525300,10.672525390625,0.9370751976966858,-0.35923585295677185,3.4518418312072754
1664206387398481400,10.6824814453125,1.367413878440857,-0.09863191843032837,2.9501051902770996
1664206387408439800,10.692439697265625,1.7723182439804077,0.329058438539505,2.157372236251831
1664206387418396000,10.70239599609375,2.205218553543091,0.7705170512199402,1.1662083864212036
1664206387428352000,10.71235205078125,2.696765661239624,0.9565414786338806,0.14561721682548523
1664206387438308000,10.72230810546875,3.203822612762451,0.45101073384284973,-0.649599552154541
1664206387448264000,10.732263916015626,3.6992979049682617,-0.46559417247772217,-1.130935788154602
1664206387458220000,10.742219970703125,4.153554439544678,-1.3471258878707886,-1.4274938106536865
1664206387468174800,10.7521748046875,4.504674434661865,-1.9033079147338867,-1.634361982345581
1664206387478131000,10.762130859375,4.815618515014648,-1.9091204404830933,-1.8635767698287964
1664206387488087000,10.772087158203124,5.110249996185303,-1.2672189474105835,-2.1454076766967773
1664206387498043000,10.78204296875,5.41526460647583,-0.4389803111553192,-2.505781650543213
1664206387507999000,10.7919990234375,5.890085697174072,-0.06021277979016304,-2.948385715484619
1664206387517954800,10.801954833984375,6.575369358062744,-0.26760217547416687,-3.499086380004883
1664206387527911000,10.811910888671875,7.2873358726501465,-0.5932644605636597,-4.109928131103516
1664206387537866800,10.82186669921875,7.543846130371094,-0.8615016341209412,-4.542392253875732
1664206387547822800,10.83182275390625,7.445074558258057,-1.0690631866455078,-4.694149017333984
1664206387557779000,10.841779052734376,7.211690425872803,-0.7603141069412231,-4.984542369842529
1664206387567735000,10.851735107421876,6.789773941040039,0.36415374279022217,-5.482626914978027
1664206387577691000,10.86169091796875,6.1737165451049805,2.03775691986084,-5.69189453125
1664206387587647000,10.87164697265625,5.109738349914551,3.0818943977355957,-5.36478853225708
1664206387597602800,10.881602783203125,3.844775438308716,2.9982962608337402,-4.289865493774414
1664206387607559000,10.891558837890624,2.986405611038208,2.110553026199341,-2.651988983154297
1664206387617514800,10.9015146484375,2.6280007362365723,0.9875120520591736,-0.9496307373046875
1664206387627470800,10.911470947265625,2.4424827098846436,0.15876828134059906,0.3230590522289276
1664206387637427000,10.921427001953125,2.1256802082061768,-0.10701370984315872,0.9145866632461548
1664206387647383000,10.931383056640625,1.7230443954467773,0.13488733768463135,0.8159160017967224
1664206387657339000,10.9413388671875,1.3997118473052979,0.6829729080200195,0.1814769208431244
1664206387667294000,10.9512939453125,1.226889729499817,1.3227810859680176,-0.7238712906837463
1664206387677249800,10.961249755859376,1.1385306119918823,1.8867204189300537,-1.6166800260543823
1664206387687206100,10.9712060546875,1.056217908859253,2.2618181705474854,-2.3165056705474854
1664206387697162000,10.981161865234375,0.9733275175094604,2.3450615406036377,-2.643876075744629
1664206387707118000,10.9911181640625,0.9238774180412292,2.1014394760131836,-2.553239107131958
1664206387717074000,11.001073974609374,0.8280547857284546,1.511858344078064,-2.1053409576416016
1664206387727030000,11.011030029296874,0.7014054656028748,0.7320773601531982,-1.4835737943649292
1664206387736985900,11.02098583984375,0.582431972026825,0.09869219362735748,-0.9399036765098572
1664206387746942000,11.03094189453125,0.40551096200942993,-0.1706806868314743,-0.6506034135818481
1664206387756898000,11.04089794921875,0.16381102800369263,-0.08440126478672028,-0.633523166179657
1664206387766854000,11.05085400390625,-0.09135309606790543,0.22589269280433655,-0.7716299295425415
1664206387776810000,11.06081005859375,-0.3595862090587616,0.5633761286735535,-0.8925790190696716
1664206387786765800,11.070765869140626,-0.6074212789535522,0.7672158479690552,-0.9034196734428406
1664206387796722000,11.080721923828126,-0.7812542915344238,0.7914730906486511,-0.782629668712616
1664206387806677800,11.090677734375,-0.8585024476051331,0.5913365483283997,-0.5793290138244629
1664206387816633900,11.1006337890625,-0.890094518661499,0.22311478853225708,-0.33972254395484924
1664206387826589700,11.110589599609375,-0.9338436126708984,-0.19198334217071533,-0.1251090168952942
1664206387836546000,11.120546142578124,-1.0564019680023193,-0.46074455976486206,0.033103279769420624
1664206387846502000,11.130501953125,-1.3134104013442993,-0.48328953981399536,0.10919617861509323
1664206387856458000,11.1404580078125,-1.6973023414611816,-0.30391597747802734,0.09026934206485748
1664206387866413800,11.150413818359375,-2.0762126445770264,0.0028314245864748955,0.007908151485025883
1664206387876370000,11.160369873046875,-2.4312539100646973,0.270770400762558,-0.10212944447994232
1664206387886325000,11.170324951171875,-2.6917853355407715,0.29234227538108826,-0.11794649064540863
1664206387896281000,11.180281005859374,-2.8279831409454346,0.0643448606133461,0.08926866948604584
1664206387906237000,11.19023681640625,-2.8348944187164307,-0.2823065519332886,0.5939760804176331
1664206387916193000,11.200193115234375,-2.9505434036254883,-0.5135403871536255,1.2892080545425415
1664206387926148900,11.21014892578125,-3.2552027702331543,-0.5659124851226807,1.9599531888961792
1664206387936105000,11.22010498046875,-3.471749782562256,-0.5157859325408936,2.409475326538086
1664206387946060800,11.230060791015624,-3.7731800079345703,-0.5020371079444885,2.5642170906066895
1664206387956017000,11.240016845703124,-4.473394870758057,-0.270904541015625,2.536468982696533
1664206387965973000,11.249972900390626,-5.415915012359619,0.15251833200454712,2.319408416748047
1664206387975929000,11.25992919921875,-5.979082107543945,0.7582266926765442,2.1040942668914795
1664206387985885000,11.269885009765625,-6.10387659072876,1.276462197303772,2.0614840984344482
1664206387995841000,11.279841064453125,-6.055264472961426,1.4883478879928589,2.2015154361724854
1664206388005796900,11.289796875,-6.012367248535156,1.4492380619049072,2.450448513031006
1664206388015753000,11.2997529296875,-5.998390197753906,1.350759744644165,2.6652228832244873
1664206388025708800,11.309708740234376,-5.949678421020508,1.3652573823928833,2.73142147064209
1664206388035665200,11.3196650390625,-5.801709175109863,1.5884037017822266,2.6284797191619873
1664206388045621000,11.32962109375,-5.510092735290527,1.9977699518203735,2.454545259475708
1664206388055577000,11.3395771484375,-5.186493396759033,2.521599769592285,2.2731056213378906
1664206388065533000,11.349532958984375,-4.827908992767334,2.8603811264038086,2.1809518337249756
1664206388075488800,11.35948876953125,-4.386556148529053,2.6134896278381348,2.426335334777832
1664206388085444900,11.36944482421875,-3.7692296504974365,1.7557235956192017,3.0710904598236084
1664206388095400000,11.37939990234375,-3.0011579990386963,0.6983437538146973,3.830322742462158
1664206388105356000,11.38935595703125,-2.3574090003967285,-0.03558135777711868,4.413836479187012
1664206388115311900,11.399311767578125,-2.0060551166534424,-0.2071171998977661,4.668735980987549
1664206388125268000,11.40926806640625,-1.7545284032821655,-0.042833440005779266,4.524225234985352
1664206388135223800,11.419223876953126,-1.4131669998168945,0.2607060372829437,3.9558441638946533
1664206388145180000,11.429179931640626,-0.8920215964317322,0.622048020362854,3.064467668533325
1664206388155135700,11.4391357421875,-0.15260106325149536,0.9374563694000244,1.987144112586975
1664206388165092000,11.449092041015625,0.6933786869049072,1.1346360445022583,0.925948977470398
1664206388175048000,11.4590478515625,1.4617278575897217,1.150767207145691,0.049744389951229095
1664206388185004000,11.469004150390624,2.072155237197876,0.9635853171348572,-0.5486774444580078
1664206388194960000,11.4789599609375,2.565899610519409,0.6577935814857483,-0.9046014547348022
1664206388204916000,11.488916015625,2.9952123165130615,0.3629198372364044,-1.1435612440109253
1664206388214871800,11.498871826171875,3.406106948852539,0.039943188428878784,-1.2776769399642944
1664206388224828000,11.508827880859375,3.6965861320495605,-0.3539380729198456,-1.3177002668380737
1664206388234784000,11.518783935546875,3.7980258464813232,-0.7450215220451355,-1.3007179498672485
1664206388244740000,11.528739990234374,3.78810453414917,-1.0905264616012573,-1.2994766235351562
1664206388254696000,11.538696044921876,3.7272841930389404,-1.337899088859558,-1.3857742547988892
1664206388264652000,11.548652099609376,3.6460163593292236,-1.4307024478912354,-1.5748035907745361
1664206388274607900,11.55860791015625,3.6243553161621094,-1.3843320608139038,-1.8533087968826294
1664206388284564000,11.56856396484375,3.7754135131835938,-1.4230456352233887,-2.284148693084717
1664206388294519000,11.57851904296875,4.138649940490723,-1.5854904651641846,-2.906202793121338
1664206388304475000,11.588474853515624,4.783675670623779,-1.724218487739563,-3.6745526790618896
1664206388314431000,11.598430908203126,5.713043212890625,-1.7051619291305542,-4.531809329986572
1664206388324386800,11.60838671875,6.306251525878906,-1.0062010288238525,-5.488038539886475
1664206388334343000,11.618343017578125,5.961029052734375,0.36073237657546997,-6.362762451171875
1664206388344298800,11.628298828125,4.714407920837402,2.0727717876434326,-6.892152309417725
1664206388354254800,11.6382548828125,3.1276044845581055,3.4923715591430664,-6.937942028045654
1664206388364211000,11.6482109375,1.8539528846740723,3.919438362121582,-6.509522438049316
1664206388374167000,11.6581669921875,1.1567575931549072,3.0510711669921875,-5.482174873352051
1664206388384123000,11.668122802734375,0.9231796860694885,1.3572938442230225,-3.7487640380859375
1664206388394079000,11.678078857421875,0.8391684293746948,-0.30543583631515503,-1.8206031322479248
1664206388404034800,11.688034912109375,0.7597542405128479,-1.3634525537490845,-0.28712597489356995
1664206388413988000,11.697988037109376,0.7357357740402222,-1.7025588750839233,0.6109434366226196
1664206388423944200,11.707944091796875,0.8210136294364929,-1.4868098497390747,0.8493618965148926
1664206388433900000,11.717900146484375,0.9671530723571777,-1.0347098112106323,0.5387110710144043
1664206388443856100,11.727856201171875,1.1121551990509033,-0.4651035964488983,-0.0633726418018341
1664206388453812200,11.737812255859374,1.1709269285202026,0.12799875438213348,-0.7736415863037109
1664206388463768300,11.747768310546874,1.144224762916565,0.589442789554596,-1.4761021137237549
1664206388473724200,11.75772412109375,1.0997315645217896,0.8884091377258301,-1.9776771068572998
1664206388483680300,11.76768017578125,1.0479631423950195,0.9157888293266296,-2.242929458618164
1664206388493636000,11.777635986328125,0.9958389401435852,0.7050580978393555,-2.226388931274414
1664206388503591200,11.787591064453125,0.9558449387550354,0.4582749605178833,-1.970665693283081
1664206388513547300,11.79754736328125,0.9392486810684204,0.3138278126716614,-1.6001497507095337
1664206388523503000,11.807503173828126,0.9872034192085266,0.4030064046382904,-1.18708336353302
1664206388533459200,11.817459228515625,1.009204626083374,0.7467467784881592,-0.9059877395629883
1664206388543415000,11.8274150390625,0.9264442324638367,1.1895755529403687,-0.7800974249839783
1664206388553371100,11.83737109375,0.7308052182197571,1.4556677341461182,-0.672668993473053
1664206388563327000,11.847326904296875,0.5037960410118103,1.6136988401412964,-0.4862314760684967
1664206388573283000,11.857282958984374,0.3510224223136902,1.6292141675949097,-0.24131056666374207
1664206388583239200,11.8672392578125,0.3076070547103882,1.5058693885803223,0.026631122455000877
1664206388593195300,11.8771953125,0.3387710452079773,1.2279161214828491,0.3207475244998932
1664206388603151000,11.887151123046875,0.3731098473072052,0.6745322942733765,0.6697713136672974
1664206388613107200,11.897107177734375,0.4206707179546356,-0.038844406604766846,1.119175910949707
1664206388623063000,11.90706298828125,0.5541592836380005,-0.6988358497619629,1.6480189561843872
1664206388633019100,11.91701904296875,0.7146221995353699,-1.4146572351455688,2.062941312789917
1664206388642975000,11.92697509765625,0.9067767262458801,-2.2079403400421143,2.2208290100097656
1664206388652931300,11.936931396484376,1.0929328203201294,-2.8483269214630127,2.0383517742156982
1664206388662887200,11.94688720703125,1.2797635793685913,-3.211235284805298,1.5023972988128662
1664206388672843300,11.95684326171875,1.3834459781646729,-3.3994691371917725,0.6577067971229553
1664206388682799000,11.966799072265625,1.0275315046310425,-3.4147655963897705,-0.3372773826122284
1664206388692755200,11.976755126953124,-0.024998078122735023,-3.0420987606048584,-1.3087162971496582
1664206388702711000,11.9867109375,-1.4185676574707031,-1.9849159717559814,-2.0040080547332764
1664206388712667100,11.996667236328125,-2.6109399795532227,-0.5365196466445923,-2.2120590209960938
1664206388722623200,12.006623291015625,-3.373506784439087,0.4842178225517273,-1.8927329778671265
1664206388732578300,12.016578369140625,-3.9195938110351562,0.9077581167221069,-1.1279809474945068
1664206388742534100,12.0265341796875,-4.514994144439697,0.7838566899299622,-0.09842627495527267
1664206388752490200,12.036490234375,-5.113903522491455,0.19745571911334991,1.0710328817367554
1664206388762446000,12.046446044921876,-5.541356563568115,-0.47663721442222595,2.2200868129730225
1664206388772402200,12.056402099609375,-5.769164085388184,-1.0435459613800049,3.1361467838287354
1664206388782358300,12.066358154296875,-5.862258434295654,-1.2830594778060913,3.6930437088012695
1664206388792314400,12.076314453125,-5.915734767913818,-1.3728229999542236,3.824413537979126
1664206388802270200,12.086270263671874,-5.917840003967285,-1.325398564338684,3.7015843391418457
1664206388812226000,12.09622607421875,-5.840815544128418,-1.2066216468811035,3.460150957107544
1664206388822182100,12.10618212890625,-5.66817569732666,-1.0711921453475952,3.185518980026245
1664206388832138000,12.116137939453125,-5.385574817657471,-0.9600891470909119,2.9595935344696045
1664206388842094000,12.126093994140625,-5.000929355621338,-0.916292667388916,2.7607860565185547
1664206388852050200,12.13605029296875,-4.596354961395264,-0.9311426281929016,2.5611464977264404
1664206388862006300,12.14600634765625,-4.181550025939941,-0.988646388053894,2.395763874053955
1664206388871962000,12.155962158203126,-3.796018123626709,-0.9890497326850891,2.26939058303833
1664206388881918200,12.165918212890626,-3.501239061355591,-0.8987773656845093,2.1618399620056152
1664206388891874000,12.1758740234375,-3.3777048587799072,-0.8151153326034546,2.081547260284424
1664206388901830100,12.185830078125,-3.298342227935791,-0.8496403098106384,2.063014507293701
1664206388911786000,12.195785888671875,-3.0489585399627686,-0.96958988904953,2.0481128692626953
1664206388921742000,12.2057421875,-2.605309009552002,-0.9946792125701904,1.8613311052322388
1664206388931698200,12.2156982421875,-2.11210298538208,-0.8270840644836426,1.4533486366271973
1664206388941654300,12.225654296875,-1.6372076272964478,-0.4626362919807434,0.9706993103027344
1664206388951609000,12.235609130859375,-1.2523422241210938,0.007533686235547066,0.5813839435577393
1664206388961565200,12.245565185546875,-1.0066776275634766,0.34555062651634216,0.3428182601928711
1664206388971521000,12.25552099609375,-0.7689017653465271,0.5379745364189148,0.20585305988788605
1664206388981477400,12.265477294921874,-0.4400421380996704,0.6532835364341736,0.1157817542552948
1664206388991433200,12.27543310546875,0.12905625998973846,0.7683018445968628,0.015167588368058205
1664206389001389300,12.285389404296875,1.0181634426116943,0.8388172388076782,-0.1293642818927765
1664206389011345200,12.29534521484375,2.0951361656188965,0.8942820429801941,-0.23730191588401794
1664206389021301200,12.30530126953125,3.093015193939209,1.0430395603179932,-0.2783372402191162
1664206389031257000,12.315257080078124,3.882868766784668,1.232187032699585,-0.2683279514312744
1664206389041213200,12.325213134765624,4.401681423187256,1.4422942399978638,-0.1966359168291092
1664206389051169300,12.335169189453126,4.699060440063477,1.6106383800506592,-0.13492168486118317
1664206389061125400,12.34512548828125,4.8970513343811035,1.6063098907470703,-0.13694673776626587
1664206389071081200,12.355081298828125,5.063045501708984,1.3969804048538208,-0.2319413125514984
1664206389081037300,12.365037353515625,5.2716803550720215,1.0574111938476562,-0.4294823706150055
1664206389090993200,12.3749931640625,5.632920265197754,0.7431368827819824,-0.7186623811721802
1664206389100949200,12.38494921875,6.263090133666992,0.6174201965332031,-1.0666075944900513
1664206389110905000,12.394905029296876,7.166671276092529,0.6575660109519958,-1.4545258283615112
1664206389120861200,12.404861083984375,8.06859016418457,0.8555254340171814,-1.8405404090881348
1664206389130817300,12.4148173828125,8.604081153869629,1.2508182525634766,-2.1676621437072754
1664206389140773000,12.424773193359375,8.726155281066895,1.7613427639007568,-2.3127853870391846
1664206389150729200,12.434729248046875,8.481701850891113,2.096503734588623,-2.2498791217803955
1664206389160685000,12.44468505859375,7.949563503265381,2.23799991607666,-1.995158076286316
1664206389170640100,12.45464013671875,7.417682647705078,2.1400773525238037,-1.6081976890563965
1664206389180596200,12.46459619140625,7.098343849182129,1.9840574264526367,-1.2460310459136963
1664206389190552300,12.47455224609375,7.088241100311279,1.9162731170654297,-1.0098981857299805
1664206389200508200,12.484508056640625,7.245687007904053,1.8218891620635986,-0.9364833235740662
1664206389210464300,12.49446435546875,7.234979152679443,1.6380075216293335,-1.0319361686706543
1664206389220420000,12.504420166015626,6.95359992980957,1.3215289115905762,-1.1845402717590332
1664206389230376200,12.514376220703125,6.446487903594971,0.8955212831497192,-1.313888669013977
1664206389240332000,12.52433203125,5.83111047744751,0.6516460180282593,-1.4276639223098755
1664206389250288000,12.5342880859375,5.223316192626953,0.6484541893005371,-1.6342695951461792
1664206389260244200,12.544244140625,4.660667896270752,0.8709280490875244,-1.9913876056671143
1664206389270200300,12.554200439453124,4.140902042388916,1.2480851411819458,-2.4158177375793457
1664206389280156200,12.56415625,3.6660284996032715,1.6578994989395142,-2.7653143405914307
1664206389290112300,12.5741123046875,3.238081455230713,2.0400941371917725,-2.9837708473205566
1664206389300068000,12.584068115234375,2.8907523155212402,2.311124563217163,-3.056351661682129
1664206389310024200,12.594024169921875,2.6300740242004395,2.4440793991088867,-2.991016387939453
1664206389319980000,12.60397998046875,2.456820011138916,2.4415626525878906,-2.829495906829834
1664206389329936400,12.613936279296874,2.364579439163208,2.358067035675049,-2.622281312942505
1664206389339892200,12.623892333984376,2.3189759254455566,2.2121050357818604,-2.4136760234832764
1664206389349848300,12.633848388671876,2.3432254791259766,2.0069847106933594,-2.201953172683716
1664206389359804200,12.64380419921875,2.4136202335357666,1.791275978088379,-1.9655771255493164
1664206389369760300,12.65376025390625,2.511608362197876,1.6108869314193726,-1.699030876159668
1664206389379716000,12.663716064453125,2.609023332595825,1.4517369270324707,-1.4155874252319336
