time,seconds_elapsed,z,y,x
1664206376904913000,0.188912841796875,1.5221999883651733,-1.056864857673645,0.3804037868976593
1664206376914869000,0.198868896484375,1.3872355222702026,-1.645510196685791,0.4271795451641083
1664206376924824800,0.208824951171875,1.4134516716003418,-1.7372851371765137,0.4509466588497162
1664206376934781200,0.21878125,1.5395963191986084,-1.210955023765564,0.4820270836353302
1664206376944737000,0.228737060546875,2.014679431915283,-0.7744024991989136,0.5023052096366882
1664206376954692000,0.238692138671875,2.8672473430633545,-0.43839892745018005,0.48929351568222046
1664206376964648000,0.24864794921875,3.623595952987671,0.17020395398139954,0.49415886402130127
1664206376974604000,0.25860400390625,3.9170804023742676,1.0574411153793335,0.5094068050384521
1664206376984560000,0.26856005859375,3.2050983905792236,1.7869067192077637,0.49963536858558655
1664206376994516200,0.27851611328125,2.5736052989959717,1.7434152364730835,0.5000180602073669
1664206377004472000,0.28847216796875,2.5436887741088867,0.9921377301216125,0.5250827074050903
1664206377014428200,0.29842822265625,2.493535041809082,0.39530497789382935,0.5646543502807617
1664206377024384000,0.308384033203125,2.2817633152008057,0.2118334174156189,0.5833401083946228
1664206377034340000,0.318340087890625,2.1651957035064697,0.2007831633090973,0.5767781138420105
1664206377044296000,0.3282958984375,2.1494221687316895,0.21289336681365967,0.6394505500793457
1664206377054252000,0.338251953125,2.100937843322754,0.050513241440057755,0.6868348121643066
1664206377064208100,0.3482080078125,2.0440220832824707,-0.1587960422039032,0.7155844569206238
1664206377074164200,0.358164306640625,1.9324541091918945,0.31090834736824036,0.6824430227279663
1664206377084120000,0.3681201171875,1.578195333480835,0.4494851231575012,0.740750253200531
1664206377094076200,0.378076171875,1.3487811088562012,0.3112095594406128,0.7681313157081604
1664206377104032000,0.388031982421875,1.4396302700042725,0.19008497893810272,0.6895778775215149
1664206377113988000,0.397988037109375,1.6461299657821655,0.49371543526649475,0.6205828189849854
1664206377123944000,0.40794384765625,1.8860799074172974,0.8476061224937439,0.47816792130470276
1664206377133900300,0.417900390625,2.2531518936157227,1.113284707069397,0.30920952558517456
1664206377143856000,0.427856201171875,2.5921199321746826,1.2730604410171509,0.19575458765029907
1664206377153812000,0.43781201171875,2.7307238578796387,1.073838233947754,0.16505126655101776
1664206377163767000,0.44776708984375,2.6675519943237305,0.6020669341087341,0.29188990592956543
1664206377173723000,0.457722900390625,2.4204554557800293,0.05831630155444145,0.5164085030555725
1664206377183679000,0.467678955078125,2.0679855346679688,-0.5137290954589844,0.746878445148468
1664206377193635000,0.477635009765625,1.7725882530212402,-0.9171679019927979,0.909985363483429
1664206377203591200,0.487591064453125,1.651769995689392,-1.146552324295044,0.9419075846672058
1664206377213547000,0.497547119140625,1.7455768585205078,-1.188249945640564,0.994347095489502
1664206377223503000,0.507503173828125,1.970592737197876,-1.001210331916809,1.0965027809143066
1664206377233459000,0.517458984375,2.0548648834228516,-0.7844487428665161,1.1513327360153198
1664206377243415000,0.5274150390625,1.9376128911972046,-0.6374883055686951,1.083239197731018
1664206377253371000,0.537370849609375,1.7207813262939453,-0.7135087847709656,0.8376890420913696
1664206377263327200,0.5473271484375,1.4815330505371094,-1.3381849527359009,0.44880548119544983
1664206377273283000,0.557282958984375,1.235888123512268,-1.8993380069732666,0.32138174772262573
1664206377283239200,0.5672392578125,1.047737956047058,-1.6080869436264038,0.409670352935791
1664206377293195000,0.577195068359375,1.115376591682434,-1.1993391513824463,0.4634645879268646
1664206377303151000,0.587151123046875,1.3831946849822998,-0.6678720712661743,0.5843356251716614
1664206377313107000,0.59710693359375,1.698318600654602,-0.052434712648391724,0.6643380522727966
1664206377323063000,0.60706298828125,1.950788974761963,0.7790569067001343,0.5295658707618713
1664206377333019100,0.61701904296875,2.084275722503662,1.4757007360458374,0.10920079052448273
1664206377342975200,0.626975341796875,2.067281484603882,1.4249690771102905,-0.40186941623687744
1664206377352931000,0.63693115234375,2.031968355178833,0.9116998910903931,-0.777275800704956
1664206377362887200,0.64688720703125,2.016552448272705,0.27257001399993896,-0.8590484261512756
1664206377372843000,0.656843017578125,1.941247820854187,-0.2583998739719391,-0.37426522374153137
1664206377382798000,0.666798095703125,1.8275519609451294,-0.4372444450855255,0.48566630482673645
1664206377392754200,0.676754150390625,1.8118553161621094,-0.2885769307613373,1.3088520765304565
1664206377402710000,0.6867099609375,2.1220645904541016,-0.5326535105705261,1.8061414957046509
1664206377412665900,0.696665771484375,2.2945690155029297,-0.6738300919532776,1.5471503734588623
1664206377422622000,0.7066220703125,2.2821426391601562,-0.1359245479106903,1.2585194110870361
1664206377432577800,0.716577880859375,2.191030502319336,0.671120822429657,0.825097918510437
1664206377442534000,0.726533935546875,2.0512616634368896,1.346946120262146,0.5512884855270386
1664206377452489700,0.73648974609375,1.9144788980484009,2.0926122665405273,0.2623453438282013
1664206377462446000,0.746446044921875,1.93519926071167,2.9026882648468018,0.0958346500992775
1664206377472402000,0.75640185546875,2.0107169151306152,3.5026259422302246,-0.01038393098860979
1664206377482358000,0.76635791015625,2.0732808113098145,3.6924235820770264,-0.1752098947763443
1664206377492313900,0.77631396484375,2.0432820320129395,3.5909292697906494,-0.34435898065567017
1664206377502270000,0.78627001953125,1.8979688882827759,3.5379579067230225,-0.432087242603302
1664206377512225800,0.796225830078125,1.6247119903564453,3.362924575805664,-0.49067145586013794
1664206377522182000,0.806181884765625,1.2363016605377197,2.962386131286621,-0.5380054116249084
1664206377532138000,0.816137939453125,0.8087484836578369,2.352513074874878,-0.5259649753570557
1664206377542094000,0.826093994140625,0.4401520788669586,1.7106575965881348,-0.44127780199050903
1664206377552050000,0.8360498046875,0.26817232370376587,1.222904086112976,-0.2660367488861084
1664206377562006000,0.846006103515625,0.23285189270973206,0.9327351450920105,-0.0989963561296463
1664206377571961900,0.8559619140625,0.2610912621021271,0.932689368724823,0.0031345405150204897
1664206377581918000,0.86591796875,0.3787747323513031,1.1223783493041992,0.04478105157613754
1664206377591873800,0.875873779296875,0.5044999122619629,1.2199983596801758,0.07856378704309464
1664206377601828900,0.885828857421875,0.5059446692466736,0.9987010955810547,0.10601405054330826
1664206377611785000,0.895784912109375,0.4642590284347534,0.6670174598693848,0.1337554007768631
1664206377621740800,0.90574072265625,0.46474823355674744,0.4296131432056427,0.17834603786468506
1664206377631697000,0.91569677734375,0.47437584400177,0.31015413999557495,0.294126957654953
1664206377641652700,0.92565283203125,0.49177026748657227,0.3612002730369568,0.49387842416763306
1664206377651608800,0.93560888671875,0.5748260021209717,0.5517672896385193,0.6467854380607605
1664206377661565000,0.94556494140625,0.6298937797546387,0.7359800338745117,0.657588541507721
1664206377671521000,0.95552099609375,0.5171307325363159,0.7653826475143433,0.49482038617134094
1664206377681476900,0.965476806640625,0.2720368504524231,0.6037085056304932,0.2535547614097595
1664206377691433000,0.975432861328125,0.03772607445716858,0.20870767533779144,0.10699089616537094
1664206377701388800,0.985388916015625,-0.12194694578647614,-0.2833387553691864,0.12856996059417725
1664206377711345000,0.995344970703125,-0.2238653153181076,-0.7277367115020752,0.26687803864479065
1664206377721300700,1.00530078125,-0.20821551978588104,-0.8440327048301697,0.42633000016212463
1664206377731257000,1.015257080078125,-0.05378253757953644,-0.5179960131645203,0.5087364912033081
1664206377741213000,1.025212890625,0.12794944643974304,0.07036524266004562,0.4346792995929718
1664206377751169000,1.0351689453125,0.33222827315330505,0.6958168745040894,0.22547413408756256
1664206377761124900,1.045124755859375,0.5693361759185791,1.2910115718841553,-0.004430168308317661
1664206377771081000,1.0550810546875,0.7731342911720276,1.6830637454986572,-0.15130776166915894
1664206377781036800,1.065036865234375,0.8823540210723877,1.821752667427063,-0.14295075833797455
1664206377790993000,1.074992919921875,0.8855580687522888,1.7442046403884888,0.01073946338146925
1664206377800948700,1.08494873046875,0.8157196044921875,1.5411961078643799,0.2393350899219513
1664206377810904000,1.094904052734375,0.7102687954902649,1.2885265350341797,0.4436618685722351
1664206377820860000,1.10485986328125,0.6374558210372925,0.9904823303222656,0.5460955500602722
1664206377830816000,1.11481591796875,0.6470962166786194,0.7137117385864258,0.5583330392837524
1664206377840771800,1.124771728515625,0.7404999136924744,0.5574232935905457,0.5179624557495117
1664206377850728000,1.13472802734375,0.8855625987052917,0.5395681262016296,0.46676957607269287
1664206377860684000,1.14468408203125,1.0345805883407593,0.6339343190193176,0.5155927538871765
1664206377870640000,1.15464013671875,1.019972801208496,0.7356258034706116,0.5957339406013489
1664206377880596000,1.164595947265625,0.8323882818222046,0.6721916794776917,0.6164357662200928
1664206377890552000,1.174552001953125,0.6115901470184326,0.47330230474472046,0.6027281880378723
1664206377900508000,1.1845078125,0.4458533823490143,0.30245333909988403,0.5622119307518005
1664206377910463700,1.194463623046875,0.37784823775291443,0.3471028208732605,0.4514617323875427
1664206377920419800,1.204419921875,0.37063905596733093,0.568144679069519,0.24082618951797485
1664206377930376000,1.2143759765625,0.3837426006793976,0.8517614603042603,-0.01786901243031025
1664206377940332000,1.22433203125,0.40056711435317993,1.109326958656311,-0.21830330789089203
1664206377950288000,1.234287841796875,0.38749659061431885,1.2010904550552368,-0.31741097569465637
1664206377960244000,1.244243896484375,0.3410071134567261,1.2036981582641602,-0.30961111187934875
1664206377970199800,1.25419970703125,0.3250734210014343,1.1560100317001343,-0.15767937898635864
1664206377980156000,1.264156005859375,0.29026272892951965,0.8067428469657898,0.08356306701898575
1664206377990111700,1.27411181640625,0.22437451779842377,0.2939053773880005,0.36340245604515076
1664206378000067800,1.28406787109375,0.16561053693294525,-0.2132619470357895,0.5871556401252747
1664206378010023000,1.29402294921875,0.13164830207824707,-0.5930936932563782,0.6913353204727173
1664206378019979000,1.30397900390625,0.12590333819389343,-0.8143166303634644,0.673585057258606
1664206378029934800,1.313934814453125,0.1165282130241394,-0.8699066638946533,0.5991220474243164
1664206378039891000,1.323890869140625,0.06735240668058395,-0.8256827592849731,0.48694276809692383
1664206378049846800,1.3338466796875,-0.03147057443857193,-0.7350425720214844,0.37939950823783875
1664206378059803100,1.34380322265625,-0.18273413181304932,-0.6075607538223267,0.28663283586502075
1664206378069759000,1.353759033203125,-0.3334740996360779,-0.4459085166454315,0.21317538619041443
1664206378079715000,1.363715087890625,-0.4344702363014221,-0.2622510492801666,0.1628432422876358
1664206378089671000,1.3736708984375,-0.4944845736026764,-0.08732398599386215,0.14409592747688293
1664206378099627000,1.383626953125,-0.5581053495407104,0.025797775015234947,0.1357109546661377
1664206378109582800,1.393582763671875,-0.5825329422950745,0.03826296702027321,0.12723518908023834
1664206378119539000,1.4035390625,-0.5501105189323425,-0.06132860481739044,0.11493270844221115
1664206378129494800,1.413494873046875,-0.4893803596496582,-0.33869895339012146,0.07691608369350433
1664206378139451100,1.423451171875,-0.4809000492095947,-0.730282723903656,0.047862064093351364
1664206378149407000,1.433406982421875,-0.5149584412574768,-1.0549529790878296,0.012484898790717125
1664206378159363000,1.443363037109375,-0.5604084730148315,-1.3035004138946533,-0.07358047366142273
1664206378169319000,1.45331884765625,-0.5825707316398621,-1.3962087631225586,-0.18690916895866394
1664206378179275000,1.46327490234375,-0.5750851035118103,-1.3396238088607788,-0.3269304633140564
1664206378189230000,1.47322998046875,-0.5396448373794556,-1.1783595085144043,-0.48061880469322205
1664206378199186000,1.48318603515625,-0.49526646733283997,-0.9676656723022461,-0.6269712448120117
1664206378209142000,1.49314208984375,-0.4674406945705414,-0.7633413076400757,-0.762719988822937
1664206378219097900,1.503097900390625,-0.4722418487071991,-0.6126492619514465,-0.8888973593711853
1664206378229054000,1.513053955078125,-0.5222413539886475,-0.6073703765869141,-0.9977623224258423
1664206378239009800,1.523009765625,-0.6059586405754089,-0.7092474699020386,-1.0407119989395142
1664206378248966000,1.5329658203125,-0.6773055195808411,-0.8252097368240356,-0.9951668381690979
1664206378258922000,1.542921875,-0.7116701602935791,-0.8640580773353577,-0.864260196685791
1664206378268878000,1.552878173828125,-0.7177655696868896,-0.8171526193618774,-0.6789973974227905
1664206378278834000,1.562833984375,-0.7181775569915771,-0.7177053689956665,-0.46358391642570496
1664206378288790000,1.5727900390625,-0.7297540903091431,-0.5840077996253967,-0.27459216117858887
1664206378298745900,1.582745849609375,-0.7610475420951843,-0.48946502804756165,-0.17754308879375458
1664206378308702000,1.592701904296875,-0.8001744151115417,-0.4283580183982849,-0.15937528014183044
1664206378318657800,1.60265771484375,-0.8413378596305847,-0.3801382780075073,-0.19509439170360565
1664206378328614000,1.61261376953125,-0.8912191390991211,-0.3544430434703827,-0.24202807247638702
1664206378338570000,1.622570068359375,-0.9188241362571716,-0.3447730839252472,-0.27856743335723877
1664206378348526000,1.632526123046875,-0.9157739877700806,-0.3646296262741089,-0.3201194107532501
1664206378358481000,1.64248095703125,-0.8912470936775208,-0.3874260187149048,-0.3710228204727173
1664206378368436700,1.652436767578125,-0.8522565364837646,-0.3842826783657074,-0.43164968490600586
1664206378378392800,1.662392822265625,-0.8043745160102844,-0.38264405727386475,-0.5121423602104187
1664206378388349000,1.672348876953125,-0.7652401328086853,-0.37217941880226135,-0.6070646643638611
1664206378398305000,1.682304931640625,-0.7320545315742493,-0.3683242201805115,-0.690233588218689
1664206378408261000,1.69226123046875,-0.7244317531585693,-0.3216800391674042,-0.7435252666473389
1664206378418217000,1.702217041015625,-0.7363097071647644,-0.25124022364616394,-0.7529318332672119
1664206378428173000,1.712173095703125,-0.7580541372299194,-0.19210313260555267,-0.7269846200942993
1664206378438129000,1.72212890625,-0.7774307727813721,-0.11426904797554016,-0.6576732397079468
1664206378448085000,1.7320849609375,-0.76763516664505,0.003876230912283063,-0.5529172420501709
1664206378458040800,1.742040771484375,-0.731854259967804,0.10162515938282013,-0.44290632009506226
1664206378467997200,1.7519970703125,-0.6914455890655518,0.16056384146213531,-0.3237256109714508
1664206378477953000,1.761953125,-0.6495015621185303,0.18057456612586975,-0.18946632742881775
1664206378487909000,1.7719091796875,-0.6231197714805603,0.19056329131126404,-0.04685618728399277
1664206378497865000,1.781864990234375,-0.6259171366691589,0.20215895771980286,0.09696995466947556
1664206378507821000,1.791821044921875,-0.6418106555938721,0.21183742582798004,0.22875142097473145
1664206378517777000,1.80177685546875,-0.6591736674308777,0.19644993543624878,0.3442862629890442
1664206378527732700,1.811732666015625,-0.6735629439353943,0.07260149717330933,0.423537939786911
1664206378537688000,1.82168798828125,-0.6764405369758606,-0.10279268771409988,0.4592916965484619
1664206378547644000,1.831643798828125,-0.6554960608482361,-0.2851020395755768,0.44935542345046997
1664206378557600000,1.84160009765625,-0.61537766456604,-0.35713523626327515,0.4210833013057709
1664206378567555800,1.851555908203125,-0.5647454261779785,-0.31838464736938477,0.37358343601226807
1664206378577512000,1.861511962890625,-0.5424515604972839,-0.297080934047699,0.28323835134506226
1664206378587468000,1.871468017578125,-0.5757778286933899,-0.3472580909729004,0.22117312252521515
1664206378597424000,1.881424072265625,-0.6523200273513794,-0.4899792969226837,0.2050655335187912
1664206378607380000,1.8913798828125,-0.7123069167137146,-0.5438928604125977,0.25950559973716736
1664206378617336000,1.901336181640625,-0.7360721826553345,-0.5434861779212952,0.33686909079551697
1664206378627292000,1.9112919921875,-0.7373272776603699,-0.5149940848350525,0.39035630226135254
1664206378637248000,1.921248046875,-0.7243779301643372,-0.45406603813171387,0.4452264606952667
1664206378647203800,1.931203857421875,-0.7397470474243164,-0.5202684998512268,0.4465591013431549
1664206378657160000,1.941159912109375,-0.7853150963783264,-0.6598407626152039,0.44781559705734253
1664206378667116000,1.951115966796875,-0.7942044138908386,-0.9036079049110413,0.4639791250228882
1664206378677072100,1.961072021484375,-0.8919126391410828,-0.988655686378479,0.38974830508232117
1664206378687028000,1.971028076171875,-0.9485961198806763,-0.9721155762672424,0.2892448604106903
1664206378696984000,1.980984130859375,-0.9414370059967041,-0.8518930077552795,0.19898127019405365
1664206378706939000,1.99093896484375,-0.9002041220664978,-0.6756839156150818,0.10141131281852722
1664206378716895000,2.00089501953125,-0.7611578106880188,-0.5845606327056885,-0.008362059481441975
1664206378726851000,2.01085107421875,-0.5652865767478943,-0.6684755086898804,-0.13623400032520294
1664206378736807000,2.020806884765625,-0.4401611387729645,-0.7531083822250366,-0.22966834902763367
1664206378746763000,2.030762939453125,-0.3972102105617523,-0.810684323310852,-0.26525378227233887
1664206378756718800,2.04071875,-0.39851275086402893,-0.7967970371246338,-0.19898100197315216
1664206378766675000,2.050675048828125,-0.42285698652267456,-0.7999709844589233,-0.015926769003272057
1664206378776630800,2.060630859375,-0.4762384593486786,-0.9053927659988403,0.2638457715511322
1664206378786587000,2.0705869140625,-0.5385367274284363,-1.0722496509552002,0.5566597580909729
1664206378796543000,2.08054296875,-0.5624495148658752,-1.2081600427627563,0.751058042049408
1664206378806499000,2.0904990234375,-0.5447242856025696,-1.2127609252929688,0.8289903998374939
1664206378816455000,2.100454833984375,-0.5147805213928223,-1.159986972808838,0.8065961003303528
1664206378826411000,2.110410888671875,-0.5045499801635742,-1.178221344947815,0.7160579562187195
1664206378836366800,2.120366943359375,-0.5755354762077332,-1.2541486024856567,0.5671220421791077
1664206378846323000,2.130322998046875,-0.750012218952179,-1.4863301515579224,0.3748748004436493
1664206378856278800,2.14027880859375,-0.9601790308952332,-1.788356900215149,0.17716945707798004
1664206378866235100,2.150235107421875,-1.0701323747634888,-1.915825366973877,-0.008390555158257484
1664206378876191000,2.16019091796875,-1.0800020694732666,-1.721859097480774,-0.1873461902141571
1664206378886146000,2.17014599609375,-1.012120008468628,-1.2088903188705444,-0.39934659004211426
1664206378896102000,2.180101806640625,-0.8972567915916443,-0.5919378995895386,-0.6014251112937927
1664206378906058000,2.19005810546875,-0.7681043744087219,-0.11875354498624802,-0.7684000134468079
1664206378916014000,2.20001416015625,-0.6294801831245422,-0.3502885103225708,-0.8343585133552551
1664206378925970200,2.20997021484375,-0.693522572517395,-0.8087604641914368,-0.6898327469825745
1664206378935926000,2.219926025390625,-0.7846007943153381,-1.3476601839065552,-0.22985929250717163
1664206378945882000,2.229882080078125,-0.8024314641952515,-1.6680424213409424,0.47408047318458557
1664206378955838000,2.239837890625,-0.7311607599258423,-1.6621174812316895,1.1657681465148926
1664206378965793800,2.249793701171875,-0.5326985120773315,-1.2682294845581055,1.666208028793335
1664206378975750000,2.25975,-0.25184395909309387,-0.6700121760368347,1.9222416877746582
1664206378985705700,2.269705810546875,-0.018631475046277046,-0.06807492673397064,1.8875823020935059
1664206378995662000,2.279662109375,0.06148386746644974,0.37091654539108276,1.6837539672851562
1664206379005618000,2.289617919921875,-0.05594129487872124,0.5395588278770447,1.4355233907699585
1664206379015574000,2.299573974609375,-0.4128227233886719,0.2075667679309845,1.3017898797988892
1664206379025529900,2.30952978515625,-0.8481276035308838,-0.24451600015163422,1.3965049982070923
1664206379035486000,2.31948583984375,-1.1537774801254272,-0.5619168877601624,1.6613552570343018
1664206379045441800,2.32944189453125,-1.2708319425582886,-0.5608494877815247,2.0136067867279053
1664206379055397000,2.339397216796875,-1.248165488243103,-0.42771485447883606,2.2988195419311523
1664206379065353000,2.34935302734375,-1.1880420446395874,-0.3134857416152954,2.480137348175049
1664206379075309000,2.35930908203125,-1.1708587408065796,-0.2264097034931183,2.517909049987793
1664206379085265000,2.369264892578125,-1.2975949048995972,-0.36531805992126465,2.3497235774993896
1664206379095221000,2.379220947265625,-1.5893298387527466,-0.5410275459289551,2.1123123168945312
1664206379105176800,2.3891767578125,-1.828628420829773,-0.7312257289886475,1.8789218664169312
1664206379115133000,2.3991328125,-1.7648414373397827,-0.6384710073471069,1.8880618810653687
1664206379125089000,2.409089111328125,-1.4943829774856567,-0.46277856826782227,2.1200921535491943
1664206379135045000,2.419045166015625,-1.1951795816421509,-0.4191139042377472,2.5183603763580322
1664206379145001000,2.4290009765625,-1.0265151262283325,-0.6862561106681824,3.0832998752593994
1664206379154957000,2.43895703125,-1.0720791816711426,-1.3827345371246338,3.6217873096466064
1664206379164913000,2.448912841796875,-1.3701587915420532,-2.2038912773132324,3.9533629417419434
1664206379174869000,2.458868896484375,-1.6042003631591797,-2.6189966201782227,3.927173376083374
1664206379184824800,2.468824951171875,-1.605758547782898,-2.4443068504333496,3.528754234313965
1664206379194781200,2.47878125,-1.4108301401138306,-1.8640539646148682,2.9666147232055664
1664206379204737000,2.488737060546875,-1.133924126625061,-1.3174103498458862,2.498098611831665
1664206379214693000,2.498693115234375,-0.8828935623168945,-0.8983942270278931,2.214634418487549
1664206379224648000,2.50864794921875,-0.6660805344581604,-0.5627278089523315,2.0877106189727783
1664206379234603800,2.518603759765625,-0.4505749046802521,-0.24789023399353027,2.0859262943267822
1664206379244560100,2.52856005859375,-0.27302247285842896,-0.030066022649407387,2.055114507675171
1664206379254516000,2.538515869140625,-0.1961740404367447,0.06980784237384796,1.899912714958191
1664206379264472000,2.54847216796875,-0.14341042935848236,0.038833148777484894,1.634162187576294
1664206379274428000,2.558427978515625,-0.08142082393169403,-0.0005158542771823704,1.2859357595443726
1664206379284384000,2.568384033203125,0.016382435336709023,0.08450343459844589,0.8923932909965515
1664206379294339800,2.57833984375,0.1510971039533615,0.24517619609832764,0.6011742353439331
1664206379304296000,2.5882958984375,0.2570861279964447,0.43666574358940125,0.4514095187187195
1664206379314251800,2.598251708984375,0.30179262161254883,0.5760278701782227,0.40059083700180054
1664206379324208000,2.6082080078125,0.3043186068534851,0.63233482837677,0.4231818914413452
1664206379334164000,2.6181640625,0.2744395434856415,0.6379522681236267,0.4849477708339691
1664206379344120000,2.6281201171875,0.23043666779994965,0.6163849234580994,0.5165632367134094
1664206379354076000,2.638075927734375,0.1547435075044632,0.5756619572639465,0.5111250281333923
1664206379364032000,2.648031982421875,0.0775536447763443,0.6387621164321899,0.5163882374763489
1664206379373987800,2.65798779296875,-0.01577523536980152,0.6813047528266907,0.5239058136940002
1664206379383944000,2.66794384765625,-0.14941558241844177,0.6162765026092529,0.5203782320022583
1664206379393900000,2.677900146484375,-0.28096774220466614,0.5344045758247375,0.5040786266326904
1664206379403855600,2.687855712890625,-0.36179041862487793,0.47282347083091736,0.46318015456199646
1664206379413811500,2.6978115234375,-0.35010501742362976,0.40949589014053345,0.41762787103652954
1664206379423767600,2.707767578125,-0.3241008520126343,0.39053234457969666,0.37755393981933594
1664206379433723400,2.717723388671875,-0.3677777647972107,0.49252739548683167,0.33555296063423157
1664206379443679500,2.727679443359375,-0.46678075194358826,0.7004571557044983,0.32609662413597107
1664206379453635300,2.73763525390625,-0.568000853061676,0.989251971244812,0.3529343605041504
1664206379463591700,2.747591796875,-0.6491180658340454,1.386151909828186,0.40747588872909546
1664206379473547500,2.757547607421875,-0.7238040566444397,1.7971346378326416,0.44824889302253723
1664206379483503600,2.767503662109375,-0.8520320653915405,1.615172028541565,0.5394086241722107
1664206379493459500,2.77745947265625,-1.0992649793624878,0.8026993870735168,0.7144100069999695
1664206379503415600,2.78741552734375,-1.284186601638794,-0.040594298392534256,0.9398031830787659
1664206379513371400,2.797371337890625,-1.351851224899292,-0.47115233540534973,1.1166743040084839
1664206379523327200,2.8073271484375,-1.3111088275909424,-0.4756549596786499,1.1597172021865845
1664206379533283600,2.81728369140625,-1.2053261995315552,-0.23753052949905396,1.040756106376648
1664206379543239400,2.827239501953125,-1.0549359321594238,0.06535636633634567,0.8919629454612732
1664206379553195500,2.837195556640625,-0.9120463728904724,0.3510480523109436,0.8155286312103271
1664206379563151400,2.8471513671875,-0.871432900428772,0.6754647493362427,0.832947313785553
1664206379573106400,2.8571064453125,-0.8941459655761719,0.9845014214515686,0.8536211252212524
1664206379583062500,2.8670625,-0.9235320687294006,1.0252597332000732,0.7944363951683044
1664206379593018600,2.8770185546875,-0.9348158836364746,0.921723484992981,0.6809372901916504
1664206379602974500,2.886974365234375,-0.8476532697677612,0.8365606665611267,0.5480873584747314
1664206379612930600,2.8969306640625,-0.7008776664733887,0.7231062650680542,0.44894957542419434
1664206379622886400,2.906886474609375,-0.5459150075912476,0.5717977285385132,0.3984842598438263
1664206379632842500,2.916842529296875,-0.4168968200683594,0.4227571189403534,0.4321383535861969
1664206379642798300,2.92679833984375,-0.3146010935306549,0.3384062647819519,0.5422866940498352
1664206379652754400,2.93675439453125,-0.2281396985054016,0.30800044536590576,0.7157692909240723
1664206379662710500,2.94671044921875,-0.20339199900627136,0.2865963578224182,0.911481499671936
1664206379672666600,2.95666650390625,-0.24565424025058746,0.12226305902004242,1.0514479875564575
1664206379682622500,2.96662255859375,-0.2706994116306305,-0.23888342082500458,1.0752485990524292
1664206379692578600,2.97657861328125,-0.24139930307865143,-0.6037029027938843,1.0139338970184326
1664206379702534400,2.986534423828125,-0.1922091245651245,-0.8768340349197388,0.897720456123352
1664206379712490500,2.996490478515625,-0.17977163195610046,-1.0415159463882446,0.7513983845710754
1664206379722446300,3.0064462890625,-0.20660164952278137,-1.0729955434799194,0.6144682168960571
1664206379732402700,3.016402587890625,-0.27154362201690674,-1.0009198188781738,0.47790637612342834
1664206379742358500,3.026358642578125,-0.32208722829818726,-0.8625275492668152,0.3240758180618286
1664206379752313300,3.036313232421875,-0.34567564725875854,-0.7052708268165588,0.14697480201721191
1664206379762269400,3.04626953125,-0.32834485173225403,-0.5396237969398499,-0.034818168729543686
1664206379772225300,3.056225341796875,-0.28049716353416443,-0.36448368430137634,-0.19002532958984375
1664206379782181400,3.066181396484375,-0.23417282104492188,-0.33814769983291626,-0.2908691167831421
1664206379792137500,3.076137451171875,-0.19347704946994781,-0.5805675387382507,-0.33775219321250916
1664206379802093600,3.086093505859375,-0.14330150187015533,-0.9854119420051575,-0.35112687945365906
1664206379812049400,3.09604931640625,-0.09917425364255905,-1.4057327508926392,-0.3512280583381653
1664206379822005500,3.106005615234375,-0.07416317611932755,-1.7106103897094727,-0.3255850374698639
1664206379831961300,3.11596142578125,-0.039691753685474396,-1.9044851064682007,-0.264651358127594
1664206379841917400,3.12591748046875,0.007601194549351931,-1.984634280204773,-0.14431563019752502
1664206379851873300,3.135873291015625,0.07871478796005249,-1.9707343578338623,0.015777897089719772
1664206379861829600,3.14582958984375,0.16553036868572235,-1.9182355403900146,0.20196081697940826
1664206379871785500,3.155785400390625,0.2584794759750366,-1.8505222797393799,0.38680949807167053
1664206379881741600,3.165741455078125,0.2941104471683502,-1.8074383735656738,0.5462444424629211
1664206379891697400,3.175697509765625,0.20857104659080505,-1.819824457168579,0.7141903042793274
1664206379901653500,3.185653564453125,0.06332144886255264,-1.8068588972091675,0.8494048118591309
1664206379911609300,3.195609375,-0.08538413792848587,-1.7237815856933594,0.9016496539115906
1664206379921564700,3.205564697265625,-0.1975674033164978,-1.5710195302963257,0.8684067726135254
1664206379931520500,3.2155205078125,-0.2656029164791107,-1.3923799991607666,0.7553622126579285
1664206379941476600,3.2254765625,-0.2878437638282776,-1.2029086351394653,0.636886715888977
1664206379951432400,3.235432373046875,-0.3196522891521454,-1.1029345989227295,0.5704757571220398
1664206379961388300,3.24538818359375,-0.3690424859523773,-1.1391242742538452,0.6003417372703552
1664206379971344400,3.255344482421875,-0.41438519954681396,-1.2312911748886108,0.7067574262619019
1664206379981300500,3.265300537109375,-0.44527706503868103,-1.3019357919692993,0.850071132183075
1664206379991256600,3.275256591796875,-0.48229339718818665,-1.3249250650405884,0.9594098925590515
1664206380001212400,3.28521240234375,-0.5177776217460632,-1.341985821723938,1.02468740940094
1664206380011168500,3.29516845703125,-0.5503236055374146,-1.3311054706573486,1.0186388492584229
1664206380021124400,3.305124267578125,-0.5696040987968445,-1.2806416749954224,0.9471561908721924
1664206380031080400,3.31508056640625,-0.5551401972770691,-1.1672389507293701,0.8387705683708191
1664206380041036300,3.325036376953125,-0.5163347125053406,-1.0239678621292114,0.7318736910820007
1664206380050992400,3.334992431640625,-0.4647974967956543,-0.9157162308692932,0.6437762975692749
1664206380060948500,3.344948486328125,-0.3846805691719055,-0.9160988926887512,0.5555803775787354
1664206380070904600,3.354904541015625,-0.2735564410686493,-1.0189450979232788,0.4604991674423218
1664206380080860400,3.3648603515625,-0.19287198781967163,-1.1771368980407715,0.33477771282196045
1664206380090816500,3.37481640625,-0.1504017561674118,-1.3379853963851929,0.1975407749414444
1664206380100771300,3.384771240234375,-0.14629648625850677,-1.3735079765319824,0.06334834545850754
1664206380110727400,3.3947275390625,-0.13984684646129608,-1.2367229461669922,-0.05011483281850815
1664206380120683500,3.40468359375,-0.0876089408993721,-0.9674994945526123,-0.11370259523391724
1664206380130639600,3.4146396484375,0.03501018136739731,-0.7601141333580017,-0.08885983377695084
1664206380140595500,3.424595458984375,0.20161433517932892,-0.7397193312644958,0.08890777081251144
1664206380150551600,3.434551513671875,0.40968525409698486,-0.8951795101165771,0.4044044613838196
1664206380160507400,3.44450732421875,0.6383578181266785,-1.2001575231552124,0.7935777902603149
1664206380170463500,3.45446337890625,0.8632857799530029,-1.6331031322479248,1.1712111234664917
1664206380180419300,3.46441943359375,1.061118721961975,-2.131760597229004,1.480908989906311
1664206380190375700,3.474375732421875,1.1929839849472046,-2.5742688179016113,1.6586425304412842
1664206380200331500,3.48433154296875,1.23297119140625,-2.8494253158569336,1.6739780902862549
1664206380210287600,3.49428759765625,1.1356803178787231,-2.9114739894866943,1.525261640548706
1664206380220243500,3.504243408203125,0.926267683506012,-2.7696611881256104,1.2181519269943237
1664206380230199600,3.514199462890625,0.669766902923584,-2.528965711593628,0.8015025854110718
1664206380240155400,3.5241552734375,0.39372438192367554,-2.3621513843536377,0.3809414803981781
1664206380250111500,3.534111572265625,0.16312074661254883,-2.3470420837402344,0.06534811109304428
1664206380260067600,3.544067626953125,0.02809634990990162,-2.4242653846740723,-0.07444014400243759
1664206380270023700,3.554023681640625,-0.02137106843292713,-2.5441715717315674,-0.02381744794547558
1664206380279978500,3.563978515625,-0.018194183707237244,-2.6589972972869873,0.15680745244026184
1664206380289934300,3.573934326171875,-0.003123888047412038,-2.781186580657959,0.3867509067058563
1664206380299890400,3.583890380859375,0.011145595461130142,-2.8823938369750977,0.5968447327613831
1664206380309846500,3.593846435546875,0.007404919248074293,-2.925382137298584,0.7336886525154114
1664206380319802600,3.603802734375,0.007961253635585308,-2.897235631942749,0.7808209657669067
1664206380329758500,3.613758544921875,0.01007899921387434,-2.8850479125976562,0.7798116207122803
1664206380339714600,3.623714599609375,0.02155136503279209,-2.9086930751800537,0.7620376944541931
1664206380349670400,3.63367041015625,0.05450878292322159,-2.91898250579834,0.7358588576316833
1664206380359626500,3.64362646484375,0.08378464728593826,-2.930180311203003,0.7062559127807617
1664206380369582300,3.653582275390625,0.09421198815107346,-2.9565417766571045,0.6786972880363464
1664206380379538400,3.663538330078125,0.07832063734531403,-2.971754312515259,0.6698957681655884
1664206380389494500,3.67349462890625,0.03417022153735161,-2.933791399002075,0.6701168417930603
1664206380399450600,3.68345068359375,-0.012573848478496075,-2.8259005546569824,0.6723073124885559
1664206380409406700,3.69340673828125,-0.053591057658195496,-2.666353940963745,0.6749842762947083
1664206380419362800,3.70336279296875,-0.05549148842692375,-2.5289342403411865,0.6799793243408203
1664206380429318700,3.713318603515625,-0.02851526439189911,-2.5006418228149414,0.6701788902282715
1664206380439274800,3.723274658203125,0.016623983159661293,-2.583566665649414,0.6482033133506775
1664206380449230600,3.733230712890625,0.07287900149822235,-2.7174477577209473,0.6202142834663391
1664206380459185700,3.743185546875,0.11766111850738525,-2.8737666606903076,0.5921482443809509
1664206380469141800,3.753141845703125,0.1396721452474594,-2.9902961254119873,0.5641917586326599
1664206380479097600,3.76309765625,0.14232492446899414,-3.010772466659546,0.5358045697212219
1664206380489053700,3.7730537109375,0.1494872272014618,-3.02268123626709,0.4936760365962982
1664206380499009500,3.783009521484375,0.17282849550247192,-3.0432846546173096,0.44337958097457886
1664206380508965600,3.792965576171875,0.22105860710144043,-3.0675768852233887,0.42679500579833984
1664206380518921700,3.802921630859375,0.28636011481285095,-3.0904300212860107,0.4809378683567047
1664206380528877800,3.8128779296875,0.34774598479270935,-3.098778486251831,0.5949397683143616
1664206380538833700,3.822833740234375,0.3783630132675171,-3.1176280975341797,0.7206662893295288
1664206380548789800,3.832789794921875,0.36308979988098145,-3.1093482971191406,0.8133525848388672
1664206380558745600,3.84274560546875,0.3477417230606079,-3.068351984024048,0.80589359998703
1664206380568701700,3.85270166015625,0.33200085163116455,-3.0149450302124023,0.6664419174194336
1664206380578657500,3.862657470703125,0.3297238349914551,-2.9342267513275146,0.4311783015727997
1664206380588613600,3.872613525390625,0.35080888867378235,-2.851276159286499,0.162920743227005
1664206380598569700,3.88256982421875,0.37307795882225037,-2.806756019592285,-0.07849294692277908
1664206380608525800,3.89252587890625,0.3852006793022156,-2.840064764022827,-0.26232269406318665
1664206380618481700,3.902481689453125,0.3759280741214752,-2.8906142711639404,-0.3753083646297455
1664206380628437800,3.912437744140625,0.35222408175468445,-2.918785333633423,-0.4450238049030304
1664206380638393600,3.9223935546875,0.329207181930542,-2.8986165523529053,-0.49398547410964966
1664206380648348700,3.9323486328125,0.2895103693008423,-2.787937641143799,-0.5116952657699585
1664206380658304800,3.9423046875,0.24614877998828888,-2.6111090183258057,-0.5198407769203186
1664206380668260600,3.952260498046875,0.20670124888420105,-2.42018985748291,-0.5162129998207092
1664206380678216700,3.962216796875,0.17615053057670593,-2.259633779525757,-0.47841745615005493
1664206380688172500,3.972172607421875,0.17744721472263336,-2.1433534622192383,-0.3537609875202179
1664206380698128600,3.982128662109375,0.19782492518424988,-2.1113672256469727,-0.1455814391374588
1664206380708084500,3.99208447265625,0.2109236866235733,-2.2230024337768555,0.11420460045337677
1664206380718040800,4.002040771484375,0.22020640969276428,-2.406613349914551,0.36231160163879395
1664206380727996700,4.01199658203125,0.21594400703907013,-2.5736794471740723,0.5675007104873657
1664206380737952800,4.021952880859375,0.19559720158576965,-2.6803178787231445,0.6824421882629395
1664206380747908600,4.03190869140625,0.15517520904541016,-2.7326016426086426,0.7082653045654297
1664206380757864700,4.04186474609375,0.09091925621032715,-2.7336316108703613,0.6598085165023804
1664206380767820500,4.051820556640625,0.009179916232824326,-2.6990292072296143,0.5350533127784729
1664206380777776600,4.061776611328125,-0.09206707775592804,-2.650797128677368,0.34370410442352295
1664206380787732500,4.071732421875,-0.17968428134918213,-2.597480058670044,0.08968381583690643
1664206380797688800,4.081688720703125,-0.24889610707759857,-2.5558817386627197,-0.18068136274814606
1664206380807644700,4.091644775390625,-0.2893418073654175,-2.4732563495635986,-0.3997551202774048
1664206380817599700,4.101599853515625,-0.31591880321502686,-2.357853889465332,-0.5198884606361389
1664206380827555600,4.1115556640625,-0.32928842306137085,-2.303100824356079,-0.5760558247566223
1664206380837511700,4.12151171875,-0.33731651306152344,-2.306504964828491,-0.5727308988571167
1664206380847467800,4.1314677734375,-0.3395671546459198,-2.34206223487854,-0.5510594248771667
1664206380857424000,4.141423828125,-0.34412115812301636,-2.404297351837158,-0.5450888872146606
1664206380867379700,4.151379638671875,-0.34407907724380493,-2.4667720794677734,-0.5662988424301147
1664206380877335800,4.161335693359375,-0.33396199345588684,-2.5080907344818115,-0.5868648290634155
1664206380887291600,4.171291748046875,-0.30644941329956055,-2.511009454727173,-0.571366548538208
1664206380897247700,4.181247802734375,-0.25702062249183655,-2.4862864017486572,-0.49988919496536255
1664206380907203600,4.19120361328125,-0.20039008557796478,-2.4645018577575684,-0.3792181611061096
1664206380917159700,4.20115966796875,-0.14169082045555115,-2.4617128372192383,-0.21654748916625977
1664206380927115800,4.21111572265625,-0.10307418555021286,-2.453291893005371,-0.05770830437541008
1664206380937071600,4.221071533203125,-0.08823585510253906,-2.4178807735443115,0.07237938791513443
1664206380947027700,4.23102783203125,-0.06829863041639328,-2.31368088722229,0.16410425305366516
1664206380956983600,4.240983642578125,-0.03722859546542168,-2.1658990383148193,0.19992883503437042
1664206380966939600,4.250939697265625,0.004403536673635244,-2.0198240280151367,0.19750908017158508
1664206380976895500,4.2608955078125,0.07378047704696655,-1.9151283502578735,0.17631271481513977
1664206380986851600,4.2708515625,0.16096358001232147,-1.908521056175232,0.18311069905757904
1664206380996807700,4.2808076171875,0.25721582770347595,-2.0274975299835205,0.23775076866149902
1664206381006762800,4.2907626953125,0.3630453050136566,-2.2397751808166504,0.33938953280448914
1664206381016718600,4.300718505859375,0.48009923100471497,-2.5047008991241455,0.4712311625480652
1664206381026674700,4.3106748046875,0.5868440270423889,-2.775071144104004,0.6133100390434265
1664206381036630500,4.320630615234375,0.6515255570411682,-2.9525694847106934,0.722748339176178
1664206381046586600,4.330586669921875,0.6704965829849243,-2.9822607040405273,0.760769784450531
1664206381056542700,4.340542724609375,0.6478536128997803,-2.866377115249634,0.7167178988456726
1664206381066498800,4.350498779296875,0.5934534668922424,-2.666368007659912,0.5889410376548767
1664206381076454700,4.36045458984375,0.5324828028678894,-2.5059003829956055,0.4204162061214447
1664206381086410800,4.37041064453125,0.509274423122406,-2.4385337829589844,0.26273787021636963
1664206381096366600,4.38036669921875,0.5358916521072388,-2.483438014984131,0.16948729753494263
1664206381106322700,4.39032275390625,0.5744163990020752,-2.6549482345581055,0.14611779153347015
1664206381116278500,4.400278564453125,0.5886107683181763,-2.9092659950256348,0.1603420078754425
1664206381126235000,4.41023486328125,0.5533968806266785,-3.1344690322875977,0.15131255984306335
1664206381136190700,4.420190673828125,0.4816175103187561,-3.3194358348846436,0.07570541650056839
1664206381146146800,4.430146728515625,0.391780287027359,-3.4999101161956787,-0.09216028451919556
1664206381156102700,4.4401025390625,0.2744677662849426,-3.6721084117889404,-0.3150005638599396
1664206381166058800,4.450058837890625,0.11313720792531967,-3.8015944957733154,-0.5592166781425476
1664206381176014600,4.4600146484375,-0.07105553150177002,-3.8724331855773926,-0.8022155165672302
1664206381185970700,4.469970703125,-0.24804602563381195,-3.7646048069000244,-1.0304003953933716
1664206381195925800,4.47992578125,-0.4286118149757385,-3.4510343074798584,-1.2175335884094238
1664206381205881600,4.489881591796875,-0.6080079078674316,-2.9397470951080322,-1.3470364809036255
1664206381215837700,4.499837646484375,-0.7731928825378418,-2.30039119720459,-1.403784155845642
1664206381225793500,4.50979345703125,-0.8976418972015381,-1.6023372411727905,-1.3977326154708862
1664206381235749600,4.51974951171875,-0.9654099941253662,-0.9718548655509949,-1.3278486728668213
1664206381245705700,4.529705810546875,-0.9740855097770691,-0.5280968546867371,-1.20736563205719
1664206381255661800,4.539661865234375,-0.9214891791343689,-0.2997390329837799,-1.0456761121749878
1664206381265617700,4.54961767578125,-0.8362591862678528,-0.3033108711242676,-0.8498642444610596
1664206381275573800,4.55957373046875,-0.7113897204399109,-0.4922749400138855,-0.6509087681770325
1664206381285529600,4.569529541015625,-0.5880630016326904,-0.7697808742523193,-0.4945751130580902
1664206381295485700,4.579485595703125,-0.4861272871494293,-1.001878261566162,-0.40608012676239014
1664206381305441500,4.589441650390625,-0.40180841088294983,-1.0796153545379639,-0.39893513917922974
1664206381315397600,4.599397705078125,-0.31431397795677185,-0.995089590549469,-0.4612451195716858
1664206381325353700,4.609353759765625,-0.2352077215909958,-0.8288026452064514,-0.5612526535987854
1664206381335309800,4.619309814453125,-0.17549538612365723,-0.6213037371635437,-0.6531972289085388
1664206381345265700,4.629265625,-0.16605740785598755,-0.44559532403945923,-0.7187206149101257
1664206381355221800,4.6392216796875,-0.20299892127513885,-0.29383614659309387,-0.7230932116508484
1664206381365177600,4.649177490234375,-0.2611812651157379,-0.16269198060035706,-0.6510113477706909
1664206381375132700,4.659132568359375,-0.30375349521636963,-0.036185700446367264,-0.5517462491989136
1664206381385088800,4.6690888671875,-0.3151249289512634,0.07975555211305618,-0.4438821077346802
1664206381395044600,4.679044677734375,-0.3175353407859802,0.14465518295764923,-0.3387916386127472
1664206381405000200,4.689000244140625,-0.3020498752593994,0.14862436056137085,-0.23194268345832825
1664206381414956000,4.6989560546875,-0.2593045234680176,0.1145486831665039,-0.12446948885917664
1664206381424912100,4.708912109375,-0.19727206230163574,0.028119252994656563,-0.025361815467476845
1664206381434868200,4.7188681640625,-0.1509501039981842,-0.09008648246526718,0.0830962210893631
1664206381444824300,4.72882421875,-0.12574034929275513,-0.22658361494541168,0.18827590346336365
1664206381454780200,4.7387802734375,-0.13176655769348145,-0.3601216971874237,0.26309555768966675
1664206381464736300,4.748736328125,-0.1518545150756836,-0.48102521896362305,0.28841981291770935
1664206381474692000,4.758692138671875,-0.18560181558132172,-0.5870661735534668,0.27051591873168945
1664206381484648200,4.768648193359375,-0.2142089605331421,-0.6438397169113159,0.23906424641609192
1664206381494604000,4.77860400390625,-0.22334307432174683,-0.6749235987663269,0.19928647577762604
1664206381504560000,4.78856005859375,-0.2125444859266281,-0.7293170690536499,0.15728043019771576
1664206381514516200,4.79851611328125,-0.19122375547885895,-0.790063738822937,0.11202134191989899
1664206381524472300,4.808472412109375,-0.18020358681678772,-0.8534464240074158,0.05511678010225296
1664206381534428200,4.81842822265625,-0.17621231079101562,-0.9398809671401978,-0.03560859337449074
1664206381544384300,4.82838427734375,-0.19175398349761963,-1.0258333683013916,-0.14188016951084137
1664206381554340000,4.838340087890625,-0.223086878657341,-1.0571529865264893,-0.24842526018619537
1664206381564295200,4.848295166015625,-0.26394402980804443,-1.0337283611297607,-0.3329140543937683
1664206381574251300,4.858251220703125,-0.29489341378211975,-0.9665207862854004,-0.3914031982421875
1664206381584207000,4.86820703125,-0.3061564564704895,-0.8659595847129822,-0.4284656047821045
1664206381594163200,4.8781630859375,-0.3091384172439575,-0.7456653714179993,-0.4562833905220032
1664206381604119000,4.888119140625,-0.3114028871059418,-0.6411701440811157,-0.472512423992157
1664206381614075100,4.8980751953125,-0.3182426989078522,-0.536771297454834,-0.4860529899597168
1664206381624031000,4.908031005859375,-0.32403481006622314,-0.411318838596344,-0.4884450435638428
1664206381633987000,4.917987060546875,-0.32692378759384155,-0.2559329867362976,-0.46570777893066406
1664206381643943200,4.927943115234375,-0.3224523365497589,-0.11613353341817856,-0.412286639213562
1664206381653899300,4.937899169921875,-0.3051055669784546,-0.02822391502559185,-0.3172871470451355
1664206381663855000,4.947855224609375,-0.250526487827301,0.015104384161531925,-0.18388888239860535
1664206381673811200,4.957811279296875,-0.1599489152431488,0.019357452169060707,-0.020734306424856186
1664206381683767000,4.96776708984375,-0.05662519484758377,-0.006915164180099964,0.16698499023914337
1664206381693723100,4.97772314453125,0.024517061188817024,-0.04923439025878906,0.36375024914741516
1664206381703679000,4.987678955078125,0.0690871924161911,-0.09055653214454651,0.5272358655929565
1664206381713635300,4.99763525390625,0.07459007948637009,-0.10229867696762085,0.6175745129585266
1664206381723591200,5.007591064453125,0.05227359011769295,-0.08265120536088943,0.6188318133354187
1664206381733547300,5.01754736328125,-0.00009081379539566115,-0.05107543617486954,0.5437317490577698
1664206381743503000,5.027503173828125,-0.06470735371112823,-0.010824152268469334,0.4154573976993561
1664206381753458200,5.037458251953125,-0.14615561068058014,0.05446643754839897,0.26194560527801514
1664206381763414300,5.047414306640625,-0.21541644632816315,0.12056875973939896,0.11557106673717499
1664206381773370400,5.057370361328125,-0.2682567536830902,0.17437046766281128,-0.014421549625694752
1664206381783326200,5.067326171875,-0.3041902482509613,0.1557544469833374,-0.12302792072296143
1664206381793282300,5.0772822265625,-0.3183571994304657,0.08671039342880249,-0.18710118532180786
1664206381803238100,5.087238037109375,-0.3203769326210022,0.007193197961896658,-0.22005753219127655
1664206381813194200,5.0971943359375,-0.3103770315647125,-0.0820448026061058,-0.24937281012535095
1664206381823150000,5.107150146484375,-0.31761524081230164,-0.172393336892128,-0.2891881465911865
1664206381833106200,5.117106201171875,-0.32908496260643005,-0.20024999976158142,-0.3270934224128723
1664206381843062300,5.127062255859375,-0.314076691865921,-0.16516605019569397,-0.378630667924881
1664206381853018400,5.137018310546875,-0.2738611102104187,-0.10183554887771606,-0.43731874227523804
1664206381862974200,5.14697412109375,-0.23187664151191711,-0.043657466769218445,-0.48551318049430847
1664206381872930300,5.156930419921875,-0.19374097883701324,-0.004608067683875561,-0.49443715810775757
1664206381882886100,5.16688623046875,-0.15855422616004944,0.013711284846067429,-0.4705600440502167
1664206381892842200,5.17684228515625,-0.13135749101638794,-0.0036671727430075407,-0.40520742535591125
1664206381902798000,5.186798095703125,-0.13114337623119354,-0.03502030298113823,-0.30762678384780884
1664206381912754200,5.196754150390625,-0.15380847454071045,-0.04983040690422058,-0.20037251710891724
1664206381922710300,5.206710205078125,-0.18331415951251984,-0.052746303379535675,-0.10772167146205902
1664206381932665000,5.2166650390625,-0.20306123793125153,-0.053048305213451385,-0.049854375422000885
1664206381942621200,5.22662109375,-0.2208719253540039,-0.05380011349916458,-0.009123457595705986
1664206381952577000,5.236576904296875,-0.24846893548965454,-0.046001046895980835,0.023199062794446945
1664206381962533000,5.246533203125,-0.29505613446235657,-0.034277547150850296,0.06292623281478882
1664206381972489200,5.2564892578125,-0.3516080975532532,-0.03610580787062645,0.08778471499681473
1664206381982445300,5.2664453125,-0.4225379228591919,-0.032642100006341934,0.09762801975011826
1664206381992401200,5.276401123046875,-0.5113745927810669,-0.008523447439074516,0.08257823437452316
1664206382002357200,5.286357177734375,-0.588404655456543,0.038049113005399704,0.04692383110523224
1664206382012313000,5.29631298828125,-0.6438277363777161,0.09434807300567627,-0.027483290061354637
1664206382022269200,5.306269287109375,-0.6848321557044983,0.15119537711143494,-0.15685220062732697
1664206382032225000,5.31622509765625,-0.7199323177337646,0.19754263758659363,-0.3203774690628052
1664206382042181400,5.326181396484375,-0.7680977582931519,0.20650310814380646,-0.4866756498813629
1664206382052137200,5.33613720703125,-0.8189145922660828,0.18717654049396515,-0.6306480169296265
1664206382062093300,5.34609326171875,-0.8726286888122559,0.16913948953151703,-0.7397587895393372
1664206382072049200,5.356049072265625,-0.9177769422531128,0.17608074843883514,-0.8194871544837952
1664206382082005200,5.366005126953125,-0.9353336095809937,0.20187506079673767,-0.8323947191238403
1664206382091961000,5.375961181640625,-0.923727810382843,0.20778435468673706,-0.790351390838623
1664206382101917200,5.385917236328125,-0.8866198658943176,0.2010452300310135,-0.7038870453834534
1664206382111873000,5.395873046875,-0.8121562600135803,0.17660538852214813,-0.5803067684173584
1664206382121828000,5.405828125,-0.7379616498947144,0.11840600520372391,-0.43828335404396057
1664206382131784200,5.4157841796875,-0.6776610612869263,0.06599020212888718,-0.28972557187080383
1664206382141740000,5.425739990234375,-0.5851619839668274,0.02316577360033989,-0.14647652208805084
1664206382151696100,5.435696044921875,-0.47305411100387573,-0.02744573913514614,-0.02358069270849228
1664206382161652000,5.44565185546875,-0.345002144575119,-0.09133044630289078,0.07073302567005157
1664206382171608300,5.4556083984375,-0.22221416234970093,-0.16672933101654053,0.14638037979602814
1664206382181564200,5.465564208984375,-0.12242098897695541,-0.26430729031562805,0.2030404657125473
1664206382191520300,5.475520263671875,-0.05958689749240875,-0.36794978380203247,0.2340332716703415
1664206382201476000,5.48547607421875,-0.013040434569120407,-0.44094863533973694,0.24634426832199097
1664206382211432200,5.49543212890625,0.021938588470220566,-0.4799652695655823,0.2430427372455597
1664206382221388000,5.505387939453125,0.04134078323841095,-0.4916725158691406,0.22366957366466522
1664206382231344000,5.51534423828125,0.0328623428940773,-0.48502740263938904,0.20146679878234863
1664206382241300200,5.52530029296875,0.01674063131213188,-0.4894692897796631,0.16376256942749023
1664206382251256300,5.53525634765625,0.004589425399899483,-0.5116427540779114,0.09958544373512268
1664206382261212200,5.545212158203125,0.002109756227582693,-0.5325608253479004,0.02857092395424843
1664206382271168300,5.555168212890625,0.01961391419172287,-0.5486149191856384,-0.05375297740101814
1664206382281124000,5.5651240234375,0.05451410636305809,-0.5697060823440552,-0.13533571362495422
1664206382291080200,5.575080078125,0.10063819587230682,-0.6037918925285339,-0.20340105891227722
1664206382301036000,5.5850361328125,0.13708887994289398,-0.6211943030357361,-0.23871563374996185
1664206382310991400,5.594991455078125,0.15686604380607605,-0.6168610453605652,-0.22325332462787628
1664206382320947200,5.604947265625,0.16398175060749054,-0.5835191011428833,-0.17448125779628754
1664206382330903300,5.6149033203125,0.15201322734355927,-0.5181294083595276,-0.1143990159034729
1664206382340859100,5.624859130859375,0.11188285797834396,-0.4217514991760254,-0.07197032868862152
1664206382350815000,5.63481494140625,0.05506112053990364,-0.3384752571582794,-0.061767492443323135
1664206382360771000,5.64477099609375,0.008490157313644886,-0.30892640352249146,-0.08408558368682861
1664206382370727200,5.65472705078125,-0.02130795083940029,-0.3305073380470276,-0.10010715574026108
1664206382380683300,5.664683349609375,-0.04823916777968407,-0.37022918462753296,-0.10089971870183945
1664206382390639000,5.67463916015625,-0.09415712207555771,-0.381056010723114,-0.0670890212059021
1664206382400595200,5.68459521484375,-0.1403142362833023,-0.3486839532852173,-0.004625644534826279
1664206382410550500,5.694550537109375,-0.18150268495082855,-0.2766587734222412,0.07736189663410187
1664206382420506600,5.704506591796875,-0.22024981677532196,-0.1774940937757492,0.178519144654274
1664206382430462700,5.714462646484375,-0.25018373131752014,-0.09667754173278809,0.29827189445495605
1664206382440418800,5.724418701171875,-0.2794942259788513,-0.0887351930141449,0.40618667006492615
1664206382450374700,5.734374755859375,-0.29799920320510864,-0.18652167916297913,0.4915822446346283
1664206382460330800,5.744330810546875,-0.31437310576438904,-0.3452133238315582,0.5498335957527161
1664206382470286600,5.75428662109375,-0.3595499098300934,-0.5040032267570496,0.5796447396278381
1664206382480242700,5.76424267578125,-0.4388178288936615,-0.6309686303138733,0.5975720882415771
1664206382490197800,5.77419775390625,-0.57025146484375,-0.6567858457565308,0.626646876335144
1664206382500153900,5.78415380859375,-0.7113668322563171,-0.5720890760421753,0.6355820298194885
1664206382510109700,5.794109619140625,-0.818234384059906,-0.46483850479125977,0.6080518960952759
1664206382520065800,5.804065673828125,-0.8790985345840454,-0.4430810213088989,0.53460693359375
1664206382530021600,5.814021728515625,-0.9286011457443237,-0.5867612361907959,0.43180280923843384
1664206382539977700,5.823977783203125,-0.9823967218399048,-0.8875972032546997,0.3205106258392334
1664206382549933600,5.83393359375,-1.0528637170791626,-1.259285569190979,0.1976369172334671
1664206382559890000,5.843889892578125,-1.1659212112426758,-1.6011576652526855,0.04754568263888359
1664206382569845800,5.853845703125,-1.3096368312835693,-1.785749912261963,-0.15004675090312958
1664206382579801600,5.863801513671875,-1.4180186986923218,-1.7848926782608032,-0.3812389671802521
1664206382589757700,5.8737578125,-1.5108469724655151,-1.6161693334579468,-0.6070233583450317
1664206382599713500,5.883713623046875,-1.5584677457809448,-1.3820860385894775,-0.7658135294914246
1664206382609669600,5.893669677734375,-1.5513405799865723,-1.203844428062439,-0.8278132677078247
1664206382619625500,5.90362548828125,-1.4951242208480835,-1.136963963508606,-0.7669357657432556
1664206382629581600,5.91358154296875,-1.429854393005371,-1.2224042415618896,-0.5762380361557007
1664206382639537700,5.92353759765625,-1.3579436540603638,-1.4182357788085938,-0.2761700749397278
1664206382649493800,5.93349365234375,-1.273716926574707,-1.6399271488189697,0.08302005380392075
1664206382659449600,5.94344970703125,-1.1907379627227783,-1.7976467609405518,0.4168430268764496
1664206382669405700,5.95340576171875,-1.1216845512390137,-1.8481717109680176,0.6780008673667908
1664206382679361500,5.963361572265625,-1.037880778312683,-1.8014953136444092,0.8441019654273987
1664206382689316900,5.97331689453125,-0.9545642733573914,-1.6982895135879517,0.9249736070632935
1664206382699272700,5.983272705078125,-0.8779259324073792,-1.6078581809997559,0.9705904126167297
1664206382709228800,5.993228759765625,-0.8025023341178894,-1.5802563428878784,1.0258406400680542
1664206382719184600,6.0031845703125,-0.7231007218360901,-1.6169624328613281,1.106471300125122
1664206382729140700,6.013140625,-0.6198211908340454,-1.7245904207229614,1.2206782102584839
1664206382739096600,6.0230966796875,-0.5352357029914856,-1.9927622079849243,1.3081351518630981
1664206382749052700,6.033052734375,-0.484428733587265,-2.3825931549072266,1.345649003982544
1664206382759008800,6.0430087890625,-0.447188138961792,-2.7442986965179443,1.3180232048034668
1664206382768964900,6.05296484375,-0.4000222384929657,-3.0069525241851807,1.1947846412658691
1664206382778920700,6.062920654296875,-0.3009795546531677,-3.1499903202056885,0.9951679110527039
1664206382788876800,6.072876708984375,-0.17676705121994019,-3.1773765087127686,0.7213779091835022
1664206382798832600,6.08283251953125,0.007382548879832029,-3.1500558853149414,0.4302467107772827
1664206382808788700,6.092788818359375,0.24040888249874115,-3.18936824798584,0.22553059458732605
1664206382818744600,6.10274462890625,0.48244521021842957,-3.4123713970184326,0.12890978157520294
1664206382828700700,6.11270068359375,0.721852719783783,-3.7601451873779297,0.041786860674619675
1664206382838656800,6.12265673828125,0.9587973952293396,-4.085350513458252,-0.14182265102863312
1664206382848612900,6.13261279296875,1.1128684282302856,-4.503275394439697,-0.4442909061908722
1664206382858568700,6.142568603515625,1.1648608446121216,-5.098810195922852,-0.8302279710769653
1664206382868523500,6.1525234375,1.1963026523590088,-5.523292064666748,-1.2922264337539673
1664206382878479600,6.162479736328125,1.2472443580627441,-5.61149787902832,-1.7273539304733276
1664206382888435700,6.172435791015625,1.2839683294296265,-5.441179275512695,-1.9915517568588257
1664206382898391800,6.182391845703125,1.3325834274291992,-5.173444747924805,-2.022336006164551
1664206382908347600,6.19234765625,1.431966781616211,-4.961889743804932,-1.9091410636901855
1664206382918303700,6.2023037109375,1.5737841129302979,-4.763311862945557,-1.9047348499298096
1664206382928259600,6.212259521484375,1.5693614482879639,-4.584446430206299,-2.058182954788208
1664206382938215700,6.222215576171875,1.2967114448547363,-4.694002628326416,-2.2799277305603027
1664206382948171500,6.232171630859375,0.9946014285087585,-4.972440242767334,-2.492199182510376
1664206382958127600,6.242127685546875,0.8612066507339478,-5.111371994018555,-2.588667869567871
1664206382968083700,6.252083740234375,0.8927562832832336,-5.111276149749756,-2.505519151687622
1664206382978039800,6.262039794921875,1.043269395828247,-5.119885444641113,-2.226869821548462
1664206382987995600,6.27199560546875,1.316158413887024,-5.231535911560059,-1.8740134239196777
1664206382997951700,6.28195166015625,1.5282286405563354,-5.571207046508789,-1.9570326805114746
1664206383007907600,6.291907470703125,1.429211974143982,-5.916718006134033,-2.6957573890686035
1664206383017863700,6.30186376953125,1.093034267425537,-5.966142177581787,-3.8598523139953613
1664206383027819500,6.311819580078125,0.6092593669891357,-5.515488624572754,-5.105467796325684
1664206383037776000,6.32177587890625,0.10340575128793716,-4.278125286102295,-6.057192802429199
1664206383047730700,6.331730712890625,-0.38556981086730957,-2.5928168296813965,-6.4798784255981445
1664206383057686500,6.3416865234375,-0.8580350875854492,-0.8917951583862305,-6.272959232330322
1664206383067642600,6.351642578125,-1.2470542192459106,0.316538542509079,-5.4333930015563965
1664206383077598500,6.361598388671875,-1.5528149604797363,0.7566272020339966,-4.082486152648926
1664206383087554800,6.371554931640625,-1.7254223823547363,0.44451141357421875,-2.4816293716430664
1664206383097510700,6.3815107421875,-1.6777856349945068,-0.4494531750679016,-0.9917862415313721
1664206383107466800,6.391466796875,-1.3715380430221558,-1.5879534482955933,-0.06734761595726013
1664206383117422600,6.401422607421875,-0.8428539633750916,-2.446671962738037,0.10818532854318619
1664206383127378700,6.411378662109375,-0.2199784368276596,-2.7499172687530518,-0.28558647632598877
1664206383137334500,6.42133447265625,0.3697058856487274,-2.5706541538238525,-0.9585254788398743
1664206383147290600,6.43129052734375,0.8360788822174072,-2.165086507797241,-1.6407780647277832
1664206383157246500,6.44124658203125,1.1600474119186401,-1.7131478786468506,-2.1667208671569824
1664206383167202800,6.451202880859375,1.1450798511505127,-1.3672972917556763,-2.444524049758911
1664206383177158700,6.46115869140625,0.756069004535675,-1.3474955558776855,-2.431767702102661
1664206383187114800,6.47111474609375,0.3175606429576874,-1.5502582788467407,-2.200793504714966
1664206383197070600,6.481070556640625,-0.03996019810438156,-1.833192229270935,-1.8776055574417114
1664206383207026700,6.491026611328125,-0.20336909592151642,-2.114579200744629,-1.5728315114974976
1664206383216982500,6.500982421875,-0.1731179803609848,-2.310080051422119,-1.288374423980713
1664206383226938600,6.510938720703125,-0.09068409353494644,-2.4438493251800537,-1.0117913484573364
1664206383236893700,6.520893798828125,0.011332016438245773,-2.6299219131469727,-0.7111340761184692
1664206383246849800,6.530849853515625,0.15511475503444672,-2.911810874938965,-0.4380708336830139
1664206383256805600,6.5408056640625,0.469149112701416,-3.204674482345581,-0.3749887943267822
1664206383266761700,6.55076171875,0.9529157876968384,-3.3323769569396973,-0.770336389541626
1664206383276717600,6.560717529296875,1.4672472476959229,-3.128549814224243,-1.5922735929489136
1664206383286673700,6.570673583984375,1.9685578346252441,-2.6370840072631836,-2.5844473838806152
1664206383296629800,6.580629638671875,2.3876640796661377,-2.0457348823547363,-3.461484670639038
1664206383306585900,6.5905859375,2.6907002925872803,-1.502419352531433,-3.951819896697998
1664206383316541700,6.600541748046875,2.8753793239593506,-1.1521950960159302,-3.9753429889678955
1664206383326497800,6.610497802734375,2.9510951042175293,-1.0834718942642212,-3.582374334335327
1664206383336453600,6.62045361328125,2.95121169090271,-1.3389379978179932,-2.8691062927246094
1664206383346409500,6.630409423828125,2.6855711936950684,-1.8489128351211548,-1.9665316343307495
1664206383356365600,6.640365478515625,1.9762787818908691,-2.600299596786499,-0.9567313194274902
1664206383366321700,6.65032177734375,1.2625406980514526,-3.566375494003296,0.016505207866430283
1664206383376277800,6.66027783203125,0.8285927772521973,-4.409364223480225,0.7375640273094177
1664206383386233600,6.670233642578125,0.6973260641098022,-4.841904163360596,1.0611975193023682
1664206383396189700,6.680189697265625,0.8610809445381165,-4.872490882873535,0.9528622627258301
1664206383406146300,6.690146240234375,1.2487075328826904,-4.609077453613281,0.4752051532268524
1664206383416102100,6.70010205078125,1.7489354610443115,-4.110415458679199,-0.2395840883255005
1664206383426057200,6.71005712890625,2.2222204208374023,-3.4559133052825928,-1.0240048170089722
1664206383436013300,6.720013427734375,2.594139337539673,-2.7641003131866455,-1.7096593379974365
1664206383445969200,6.72996923828125,2.810720205307007,-2.1315507888793945,-2.222154140472412
1664206383455925200,6.73992529296875,2.8726866245269775,-1.6820389032363892,-2.5407800674438477
1664206383465881000,6.749881103515625,2.768695831298828,-1.4148788452148438,-2.658994436264038
1664206383475837200,6.759837158203125,2.580899238586426,-1.2790608406066895,-2.623722791671753
1664206383485793000,6.76979296875,2.3940534591674805,-1.2112946510314941,-2.4925365447998047
1664206383495749000,6.7797490234375,2.266237258911133,-1.133396029472351,-2.3098161220550537
1664206383505705200,6.789705322265625,2.222766876220703,-1.06376051902771,-2.1395726203918457
1664206383515661300,6.799661376953125,2.247110366821289,-0.9543232917785645,-1.9865096807479858
1664206383525617200,6.8096171875,2.3364713191986084,-0.842586874961853,-1.86911940574646
1664206383535573200,6.8195732421875,2.428799629211426,-0.7357422113418579,-1.7828457355499268
1664206383545529000,6.829529052734375,2.53255295753479,-0.6840441226959229,-1.73252534866333
1664206383555485200,6.839485107421875,2.626093626022339,-0.7031456232070923,-1.7342665195465088
1664206383565441000,6.84944091796875,2.734624147415161,-0.7301080226898193,-1.7729430198669434
1664206383575397400,6.8593974609375,2.8886067867279053,-0.7402381300926208,-1.830808401107788
1664206383585353200,6.869353271484375,3.053799629211426,-0.6891112923622131,-1.8783469200134277
1664206383595309300,6.879309326171875,3.2226240634918213,-0.5604934096336365,-1.8832961320877075
1664206383605264100,6.88926416015625,3.3549506664276123,-0.4059789180755615,-1.863148808479309
1664206383615220200,6.89922021484375,3.417750120162964,-0.23665009438991547,-1.8209363222122192
1664206383625176000,6.909176025390625,3.4212982654571533,-0.08290846645832062,-1.7326818704605103
1664206383635132400,6.91913232421875,3.4174773693084717,0.028990106657147408,-1.5963035821914673
1664206383645088300,6.929088134765625,3.439452648162842,0.04765460267663002,-1.410815954208374
1664206383655044400,6.93904443359375,3.4908547401428223,-0.052504219114780426,-1.2076133489608765
1664206383665000200,6.949000244140625,3.538558006286621,-0.1828920543193817,-1.0042858123779297
1664206383674956300,6.958956298828125,3.565300703048706,-0.33537372946739197,-0.8016871213912964
1664206383684912000,6.968912109375,3.5517685413360596,-0.430784672498703,-0.5759727358818054
1664206383694868200,6.9788681640625,3.524651527404785,-0.4879731237888336,-0.3075415790081024
1664206383704824300,6.98882421875,3.5011425018310547,-0.5405516624450684,-0.030307039618492126
1664206383714780400,6.998780517578125,3.4591753482818604,-0.5638013482093811,0.22991415858268738
1664206383724736300,7.008736328125,3.398378849029541,-0.5193030834197998,0.43090903759002686
1664206383734692400,7.0186923828125,3.3791937828063965,-0.009610016830265522,0.24308748543262482
1664206383744648200,7.028648193359375,3.172417163848877,-0.16927531361579895,-0.014217285439372063
1664206383754604000,7.03860400390625,3.030723810195923,-0.39428019523620605,-0.006987069267779589
1664206383764560100,7.04856005859375,3.003797769546509,-0.44223839044570923,0.09377309679985046
1664206383774516200,7.05851611328125,2.965296983718872,-0.4158802926540375,0.10637836903333664
1664206383784471300,7.06847119140625,2.891277551651001,-0.3578827679157257,0.04314693808555603
1664206383794427100,7.07842724609375,2.7948827743530273,-0.24600204825401306,-0.04374455288052559
1664206383804383200,7.08838330078125,2.6705660820007324,-0.10462681204080582,-0.12565593421459198
1664206383814339000,7.098339111328125,2.498098850250244,0.04344814270734787,-0.1751803308725357
1664206383824295200,7.108295166015625,2.22627329826355,0.20449987053871155,-0.15946368873119354
1664206383834251300,7.118251220703125,1.8834761381149292,0.31292036175727844,-0.1068420261144638
1664206383844207400,7.128207275390625,1.5529518127441406,0.3908958435058594,-0.03039226122200489
1664206383854163200,7.1381630859375,1.225663661956787,0.4582841992378235,0.06764349341392517
1664206383864119300,7.148119384765625,0.9505016207695007,0.48761892318725586,0.20114216208457947
1664206383874075100,7.1580751953125,0.7435300946235657,0.49856799840927124,0.37096768617630005
1664206383884031200,7.16803125,0.5581623315811157,0.4571441113948822,0.549465537071228
1664206383893987000,7.177987060546875,0.3671673536300659,0.3111962378025055,0.6918197274208069
1664206383903943400,7.187943359375,0.03266313672065735,0.09107638150453568,0.8239333033561707
1664206383913899300,7.197899169921875,-0.497023344039917,-0.17175312340259552,0.9406583309173584
1664206383923855400,7.20785546875,-1.14817476272583,-0.3400118947029114,1.0161285400390625
1664206383933811200,7.217811279296875,-1.7895326614379883,-0.39878174662590027,1.0244450569152832
1664206383943767300,7.227767333984375,-2.3284952640533447,-0.3751507103443146,0.9773516058921814
1664206383953723100,7.23772314453125,-2.7623796463012695,-0.2565886378288269,0.9384300708770752
1664206383963679200,7.24767919921875,-3.0942113399505615,-0.12028753012418747,0.9287750124931335
1664206383973634300,7.25763427734375,-3.3897998332977295,-0.00475587323307991,0.9459289908409119
1664206383983590100,7.267590087890625,-3.720046043395996,0.00669252360239625,0.9971711039543152
1664206383993546200,7.277546142578125,-4.1074538230896,-0.12190433591604233,1.0618329048156738
1664206384003502000,7.287502197265625,-4.519547939300537,-0.32547423243522644,1.107600450515747
1664206384013458200,7.297458251953125,-4.900355815887451,-0.5265074968338013,1.1486040353775024
1664206384023414000,7.3074140625,-5.245813846588135,-0.6389831304550171,1.1857426166534424
1664206384033370400,7.317370361328125,-5.544506549835205,-0.643619954586029,1.2191914319992065
1664206384043326200,7.327326171875,-5.8321852684021,-0.5526607632637024,1.1765505075454712
1664206384053282300,7.3372822265625,-6.069506645202637,-0.352073609828949,1.1376392841339111
1664206384063238100,7.347238037109375,-6.186965465545654,-0.08042480051517487,1.191981315612793
1664206384073194200,7.3571943359375,-6.151001930236816,0.18454959988594055,1.3619682788848877
1664206384083150000,7.367150146484375,-6.0139594078063965,0.37058737874031067,1.585959792137146
1664206384093106200,7.377106201171875,-5.845940113067627,0.45413821935653687,1.8217934370040894
1664206384103062300,7.387062255859375,-5.689815044403076,0.38005998730659485,2.0268843173980713
1664206384113018400,7.397018310546875,-5.5580735206604,0.2083635926246643,2.199357509613037
1664206384122974200,7.40697412109375,-5.457611560821533,-0.03972078114748001,2.3253276348114014
1664206384132930300,7.416930419921875,-5.379421234130859,-0.3917264938354492,2.4322235584259033
1664206384142886100,7.42688623046875,-5.30479621887207,-0.753301203250885,2.535919189453125
1664206384152841200,7.43684130859375,-5.2223992347717285,-1.0641202926635742,2.6434898376464844
1664206384162797300,7.44679736328125,-5.103240966796875,-1.2833096981048584,2.7459962368011475
1664206384172753400,7.45675341796875,-4.975405693054199,-1.4578138589859009,2.808084726333618
1664206384182709200,7.466709228515625,-4.8600358963012695,-1.5587292909622192,2.7900044918060303
1664206384192665000,7.4766650390625,-4.739634990692139,-1.5415151119232178,2.674928665161133
1664206384202621200,7.48662109375,-4.556718826293945,-1.3613141775131226,2.528193473815918
1664206384212577000,7.496576904296875,-4.2841267585754395,-1.128982663154602,2.4002130031585693
1664206384222533000,7.506533203125,-3.922297716140747,-0.9317575097084045,2.2958009243011475
1664206384232489200,7.5164892578125,-3.4585165977478027,-0.7853723168373108,2.226794958114624
1664206384242445300,7.5264453125,-2.9184892177581787,-0.7048042416572571,2.2193198204040527
1664206384252401200,7.536401123046875,-2.3301618099212646,-0.6278668642044067,2.220151424407959
1664206384262357200,7.546357177734375,-1.676454782485962,-0.6195806860923767,2.216052293777466
1664206384272313000,7.55631298828125,-1.1174373626708984,-0.5125823616981506,2.2007296085357666
1664206384282269200,7.566269287109375,-0.7470645904541016,-0.3435858488082886,2.1788644790649414
1664206384292225000,7.57622509765625,-0.5039915442466736,-0.23803892731666565,2.169403314590454
1664206384302181000,7.58618115234375,-0.35060915350914,-0.23712866008281708,2.1551945209503174
1664206384312137200,7.59613720703125,-0.09658513218164444,-0.36254703998565674,2.176893472671509
1664206384322093300,7.60609326171875,0.3193308413028717,-0.6284196972846985,2.243412971496582
1664206384332049200,7.616049072265625,0.8238046765327454,-0.8469544649124146,2.2669808864593506
1664206384342004200,7.626004150390625,1.358455777168274,-0.9714521765708923,2.217409133911133
1664206384351960000,7.6359599609375,1.7554407119750977,-0.9453635811805725,2.1294736862182617
1664206384361916400,7.64591650390625,1.9760534763336182,-0.19922149181365967,1.9393255710601807
1664206384371872300,7.655872314453125,2.0980470180511475,0.38491013646125793,1.6739083528518677
1664206384381828400,7.665828369140625,2.2580409049987793,0.8121155500411987,1.3013054132461548
1664206384391784200,7.6757841796875,2.449857234954834,1.1775193214416504,0.8641398549079895
1664206384401740300,7.685740234375,2.668462038040161,1.3756645917892456,0.4403230547904968
1664206384411697200,7.695697265625,2.973309278488159,1.4283320903778076,0.092453233897686
1664206384421653200,7.7056533203125,3.285106897354126,1.3198370933532715,-0.18155966699123383
1664206384431609000,7.715609130859375,3.5599992275238037,1.1142631769180298,-0.3844480812549591
1664206384441565200,7.725565185546875,3.783432722091675,0.984246015548706,-0.517873227596283
1664206384451521300,7.735521240234375,3.9282588958740234,0.9451004862785339,-0.6080976724624634
1664206384461477400,7.745477294921875,3.9441611766815186,0.966099202632904,-0.6547852754592896
1664206384471433200,7.75543310546875,3.8402445316314697,0.8763384222984314,-0.660284161567688
1664206384481389300,7.765389404296875,3.7459545135498047,0.679324209690094,-0.7105843424797058
1664206384491345200,7.77534521484375,3.7559385299682617,0.43381428718566895,-0.8671678304672241
1664206384501301200,7.78530126953125,3.836030960083008,0.34314724802970886,-1.165500521659851
1664206384511257000,7.795257080078125,3.9004552364349365,0.49853870272636414,-1.6185534000396729
1664206384521212200,7.805212158203125,3.9434731006622314,0.7910549640655518,-2.164323091506958
1664206384531168300,7.815168212890625,3.947401762008667,1.2377805709838867,-2.7302918434143066
1664206384541124000,7.8251240234375,3.8461945056915283,1.7065578699111938,-3.2463300228118896
1664206384551080200,7.835080078125,3.70210862159729,2.0018398761749268,-3.624401807785034
1664206384561036000,7.8450361328125,3.4893836975097656,2.0741982460021973,-3.787503242492676
1664206384570992000,7.8549921875,3.10915470123291,1.9598278999328613,-3.6806249618530273
1664206384580948200,7.8649482421875,2.626073122024536,1.7388979196548462,-3.2812583446502686
1664206384590904300,7.874904296875,2.1273512840270996,1.4932661056518555,-2.701702117919922
1664206384600860200,7.884860107421875,1.7316992282867432,1.2419416904449463,-2.065777540206909
1664206384610816300,7.894816162109375,1.4448168277740479,1.0423036813735962,-1.4824384450912476
1664206384620772000,7.904772216796875,1.1614530086517334,0.9199610352516174,-1.0602643489837646
1664206384630728200,7.914728271484375,0.8172394633293152,0.8503800630569458,-0.8534352779388428
1664206384640684000,7.92468408203125,0.45182979106903076,0.8301754593849182,-0.8501598238945007
1664206384650640100,7.93464013671875,0.13356764614582062,0.8469430208206177,-0.9993189573287964
1664206384660596200,7.94459619140625,-0.08982629328966141,0.8532163500785828,-1.2254146337509155
1664206384670552300,7.95455224609375,-0.2245984822511673,0.7919367551803589,-1.4361639022827148
1664206384680508200,7.964508056640625,-0.2751319706439972,0.7178918123245239,-1.5691651105880737
1664206384690464300,7.97446435546875,-0.25953277945518494,0.6644262075424194,-1.6009718179702759
1664206384700420000,7.984420166015625,-0.22115395963191986,0.6227210760116577,-1.596256136894226
1664206384710375200,7.994375244140625,-0.16844120621681213,0.5406379699707031,-1.6091032028198242
1664206384720331300,8.004331298828125,-0.06821686774492264,0.44370022416114807,-1.648278832435608
1664206384730287000,8.014287109375,0.06706292182207108,0.3927619159221649,-1.7652169466018677
1664206384740243200,8.0242431640625,0.2594669759273529,0.44690078496932983,-1.9342153072357178
1664206384750199000,8.034198974609374,0.4591233730316162,0.6580218076705933,-2.0929150581359863
1664206384760155100,8.044155029296874,0.5876107811927795,0.9806481003761292,-2.167339563369751
1664206384770111000,8.054111083984376,0.6449164152145386,1.2805655002593994,-2.0708446502685547
1664206384780067300,8.0640673828125,0.6553797125816345,1.4306522607803345,-1.7839101552963257
1664206384790023200,8.074023193359375,0.5958415269851685,1.3592958450317383,-1.3890329599380493
1664206384799979300,8.083979248046875,0.34333258867263794,0.9644163846969604,-0.9593576788902283
1664206384809935000,8.09393505859375,-0.11766218394041061,0.1843743622303009,-0.5090523362159729
1664206384819891200,8.10389111328125,-0.5350879430770874,-0.6981886625289917,-0.032464731484651566
1664206384829847000,8.113846923828126,-0.7922017574310303,-1.2330478429794312,0.36061838269233704
1664206384839803100,8.12380322265625,-0.9470499157905579,-1.1637734174728394,0.5949763059616089
1664206384849759000,8.133759033203125,-1.108282446861267,-0.46688729524612427,0.6649753451347351
1664206384859715300,8.14371533203125,-1.4197988510131836,0.5067108869552612,0.5674985647201538
1664206384869671200,8.153671142578125,-1.9226070642471313,1.305222988128662,0.42226576805114746
1664206384879627300,8.163627197265624,-2.6149709224700928,1.3286806344985962,0.29911959171295166
1664206384889583000,8.1735830078125,-3.4801626205444336,0.5968490242958069,0.3409293591976166
1664206384899539200,8.183539306640625,-4.182188034057617,-0.33333510160446167,0.5736140012741089
1664206384909494300,8.193494384765625,-4.523946762084961,-0.8551242351531982,0.8490002751350403
1664206384919450400,8.203450439453125,-4.678411483764648,-0.8288654685020447,0.9973679184913635
1664206384929406200,8.21340625,-5.109005451202393,-0.39286020398139954,0.8333803415298462
1664206384939362300,8.2233623046875,-5.923825740814209,0.17302930355072021,0.3139730989933014
1664206384949318100,8.233318115234376,-6.726861476898193,0.895048201084137,-0.1744687408208847
1664206384959274200,8.243274169921875,-7.27748966217041,1.600818157196045,-0.2946619987487793
1664206384969230000,8.25322998046875,-7.633075714111328,1.9959475994110107,0.03382188081741333
1664206384979186200,8.263186279296875,-7.863958835601807,1.9437121152877808,0.7036620378494263
1664206384989142300,8.273142333984374,-7.9355149269104,1.5711255073547363,1.509067177772522
1664206384999098000,8.28309814453125,-7.903086185455322,1.166343331336975,2.2685165405273438
1664206385009054200,8.29305419921875,-7.773172855377197,0.8806934952735901,2.9026646614074707
1664206385019010000,8.303010009765625,-7.493094444274902,0.7238194942474365,3.354175090789795
1664206385028966100,8.312966064453125,-7.141165256500244,0.7964779734611511,3.6082918643951416
1664206385038922000,8.322921875,-6.809335708618164,1.1114636659622192,3.654005765914917
1664206385048878000,8.332878173828124,-6.304134845733643,1.2931327819824219,3.56630539894104
1664206385058834200,8.342834228515626,-5.438912391662598,0.9302080869674683,3.5955817699432373
1664206385068790300,8.352790283203126,-4.307596683502197,0.08206930011510849,3.854829788208008
1664206385078746000,8.36274609375,-3.070193290710449,-0.7067741751670837,4.143155097961426
1664206385088701200,8.372701171875,-2.0870163440704346,-0.8393226265907288,4.025535583496094
1664206385098657000,8.382656982421874,-1.2720320224761963,-0.43337807059288025,3.434474468231201
1664206385108613400,8.39261328125,-0.4100964367389679,0.23398080468177795,2.5562703609466553
1664206385118569200,8.4025693359375,0.5039880275726318,0.8534592390060425,1.601793646812439
1664206385128525300,8.412525390625,1.5395302772521973,1.194502353668213,0.8459134101867676
1664206385138481200,8.422481201171875,2.5982441902160645,1.1513468027114868,0.39075443148612976
1664206385148437200,8.432437255859375,3.5454938411712646,0.8398028016090393,0.19436228275299072
1664206385158393000,8.44239306640625,4.227308750152588,0.4856870770454407,0.1764967441558838
1664206385168349200,8.45234912109375,4.589828014373779,0.21232983469963074,0.21583323180675507
1664206385178305000,8.462304931640626,4.730186462402344,0.05859726667404175,0.19576790928840637
1664206385188261400,8.472261474609375,4.735104560852051,0.005096225067973137,0.021675201132893562
1664206385198217200,8.48221728515625,4.731279373168945,0.02786545269191265,-0.35930970311164856
1664206385208173300,8.49217333984375,4.924249649047852,0.010721886530518532,-0.8917733430862427
1664206385218129200,8.502129150390624,5.392268180847168,-0.11252547800540924,-1.4927561283111572
1664206385228085200,8.512085205078124,5.998906135559082,-0.31688979268074036,-2.0978903770446777
1664206385238041000,8.522041015625,6.580903053283691,-0.5113205313682556,-2.7101855278015137
1664206385247997200,8.5319970703125,6.911536693572998,-0.6924157738685608,-3.329561471939087
1664206385257953300,8.541953369140625,6.9900360107421875,-0.7113977074623108,-3.7450428009033203
1664206385267908000,8.551908203125,6.820601940155029,-0.5344410538673401,-3.9065520763397217
1664206385277864200,8.5618642578125,6.559724807739258,-0.3288290202617645,-3.912994623184204
1664206385287820000,8.571820068359376,6.514468669891357,-0.20514169335365295,-3.8759710788726807
1664206385297776000,8.581776123046875,6.572094440460205,-0.08075743168592453,-4.049440860748291
1664206385307732200,8.591732177734375,6.348058700561523,0.23446816205978394,-4.469841957092285
1664206385317688300,8.601688232421875,5.7104010581970215,0.5656013488769531,-4.946370601654053
1664206385327644200,8.61164404296875,4.7435808181762695,0.753663957118988,-5.109780311584473
1664206385337600300,8.621600341796874,3.7813613414764404,0.8436084389686584,-4.833969593048096
1664206385347556000,8.63155615234375,3.1344175338745117,0.8200850486755371,-4.165790557861328
1664206385357512200,8.64151220703125,2.788226842880249,0.551195502281189,-3.2338082790374756
1664206385367468000,8.651468017578125,2.5741395950317383,0.13442865014076233,-2.2367172241210938
1664206385377424100,8.661424072265625,2.410801410675049,-0.20317469537258148,-1.3489811420440674
1664206385387380200,8.671380126953125,2.3084304332733154,-0.35828039050102234,-0.7267188429832458
1664206385397336300,8.68133642578125,2.25252366065979,-0.35873791575431824,-0.43025922775268555
1664206385407291600,8.691291748046876,2.1789042949676514,-0.24280491471290588,-0.4700276851654053
1664206385417247700,8.701247802734375,2.0387837886810303,-0.0877721980214119,-0.7748544216156006
1664206385427203600,8.71120361328125,1.8587825298309326,0.06328310072422028,-1.1565251350402832
1664206385437159700,8.72115966796875,1.6878219842910767,0.2653786838054657,-1.4550853967666626
1664206385447115800,8.73111572265625,1.5075763463974,0.5338602066040039,-1.6439852714538574
1664206385457070600,8.741070556640626,1.2676020860671997,0.755088746547699,-1.661863088607788
1664206385467026700,8.751026611328125,0.9595504999160767,0.844526469707489,-1.4733035564422607
1664206385476982500,8.760982421875,0.6184996962547302,0.7470672726631165,-1.1590607166290283
1664206385486938600,8.770938720703125,0.267374724149704,0.4968230724334717,-0.8982024788856506
1664206385496894700,8.780894775390625,-0.04590357467532158,0.21481136977672577,-0.7956411838531494
1664206385506850800,8.790850830078124,-0.30042240023612976,0.06333795934915543,-0.8954266309738159
1664206385516806700,8.800806640625,-0.5494239926338196,0.1857765167951584,-1.1505159139633179
1664206385526762800,8.8107626953125,-0.8049143552780151,0.5033278465270996,-1.4107704162597656
1664206385536718600,8.820718505859375,-1.0543146133422852,0.8684192895889282,-1.5141340494155884
1664206385546674700,8.8306748046875,-1.323304533958435,1.1815412044525146,-1.3782827854156494
1664206385556630500,8.840630615234375,-1.5737226009368896,1.2825254201889038,-1.0158358812332153
1664206385566586600,8.850586669921874,-1.8226333856582642,1.080114483833313,-0.5346274375915527
1664206385576542700,8.860542724609376,-2.1750266551971436,0.6921254396438599,-0.0814322754740715
1664206385586498800,8.870498779296875,-2.560208559036255,0.3809175193309784,0.24977414309978485
1664206385596454700,8.88045458984375,-2.8905832767486572,0.3476908504962921,0.42489537596702576
1664206385606410800,8.89041064453125,-3.1327641010284424,0.6043873429298401,0.4542311429977417
1664206385616366600,8.90036669921875,-3.3281800746917725,1.0108741521835327,0.44754233956336975
1664206385626322700,8.91032275390625,-3.5481741428375244,1.3868097066879272,0.47058776021003723
1664206385636278500,8.920278564453126,-3.864089250564575,1.556739330291748,0.5788929462432861
1664206385646234600,8.930234619140625,-4.4364776611328125,1.4516425132751465,0.7809069752693176
1664206385656190700,8.940190673828125,-5.042868137359619,1.1613765954971313,1.0658692121505737
1664206385666145500,8.9501455078125,-5.107058525085449,1.002572774887085,1.5565463304519653
1664206385676101600,8.9601015625,-4.9350810050964355,0.8854230046272278,2.0885636806488037
1664206385686057500,8.970057373046876,-5.3115386962890625,0.7260687947273254,2.429453134536743
1664206385696013600,8.980013671875,-6.123420715332031,0.6025830507278442,2.3884336948394775
1664206385705969700,8.9899697265625,-6.716097831726074,0.8102111220359802,2.155181646347046
1664206385715925800,8.99992578125,-6.828552722930908,1.1687426567077637,1.999051570892334
1664206385725881600,9.009881591796875,-6.68527889251709,1.3349907398223877,2.0147762298583984
1664206385735837700,9.019837646484374,-6.49791145324707,1.1404974460601807,2.191326379776001
1664206385745793500,9.02979345703125,-6.293770790100098,0.7856988310813904,2.449631452560425
1664206385755749600,9.03974951171875,-6.054953575134277,0.5002442002296448,2.684422731399536
1664206385765705500,9.04970556640625,-5.792634010314941,0.3519788086414337,2.8962485790252686
1664206385775661800,9.059661865234375,-5.501415252685547,0.33323973417282104,3.0913195610046387
1664206385785617700,9.06961767578125,-5.206120014190674,0.4399470090866089,3.2662601470947266
1664206385795573800,9.07957373046875,-4.842636585235596,0.5529114007949829,3.376088857650757
1664206385805529600,9.089529541015626,-4.331250190734863,0.6003124713897705,3.417652130126953
1664206385815485700,9.099485595703126,-3.646724224090576,0.6125960350036621,3.4187631607055664
1664206385825441500,9.109441650390625,-2.8859026432037354,0.5934537649154663,3.3633182048797607
1664206385835397600,9.119397705078125,-2.224553108215332,0.615896999835968,3.2642390727996826
1664206385845353700,9.129353759765625,-1.6759480237960815,0.5599938035011292,3.0973339080810547
1664206385855309800,9.139309814453124,-1.125611662864685,0.4062580168247223,2.8594117164611816
1664206385865264600,9.1492646484375,-0.4639575481414795,0.25099948048591614,2.496182441711426
1664206385875220700,9.159220703125,0.40743300318717957,0.23129554092884064,2.044327974319458
1664206385885176600,9.169176513671875,1.4142544269561768,0.34858542680740356,1.6174054145812988
1664206385895132700,9.179132568359375,2.3396944999694824,0.5380999445915222,1.246373176574707
1664206385905088800,9.1890888671875,3.023698329925537,0.7151554226875305,0.9690073728561401
1664206385915044900,9.199044921875,3.405426025390625,0.8198003172874451,0.7356700301170349
1664206385925000700,9.209000732421876,3.6190247535705566,0.7950265407562256,0.5217635631561279
1664206385934956800,9.218956787109375,3.8665056228637695,0.6443222761154175,0.302601158618927
1664206385944912600,9.22891259765625,4.191863536834717,0.3973926305770874,-0.009553291834890842
1664206385954868700,9.23886865234375,4.592126846313477,0.14602112770080566,-0.45288971066474915
1664206385964824600,9.248824462890624,5.115116119384766,-0.03462082892656326,-1.0148595571517944
1664206385974780700,9.25878076171875,5.618453025817871,-0.03825604170560837,-1.5955349206924438
1664206385984736800,9.26873681640625,5.923473834991455,0.09824827313423157,-2.124420404434204
1664206385994692600,9.278692626953125,6.027246952056885,0.2457551658153534,-2.5707480907440186
1664206386004648700,9.288648681640625,6.186106204986572,0.34776967763900757,-2.9192538261413574
1664206386014604500,9.2986044921875,6.515810012817383,0.40595176815986633,-3.3487002849578857
1664206386024560600,9.308560546875,6.8577399253845215,0.6407318115234375,-3.828657865524292
1664206386034516500,9.3185166015625,7.174194812774658,1.099084734916687,-4.422631740570068
1664206386044471800,9.328471923828126,7.268102169036865,1.5459789037704468,-5.210018157958984
1664206386054427600,9.338427734375,6.865131855010986,1.848500370979309,-5.917572498321533
1664206386064383700,9.3483837890625,5.922768592834473,1.997183084487915,-6.049489498138428
1664206386074339600,9.358339599609375,4.670605659484863,1.7835136651992798,-5.365842342376709
1664206386084295700,9.368295654296874,3.5111641883850098,1.3093892335891724,-4.108276844024658
1664206386094251500,9.37825146484375,2.8079137802124023,0.7006694078445435,-2.753596067428589
1664206386104208000,9.388207763671875,2.4730746746063232,0.20674678683280945,-1.6534494161605835
1664206386114163700,9.398163818359375,2.2430601119995117,0.11073050647974014,-1.0779930353164673
1664206386124119800,9.408119873046875,1.9540941715240479,0.4345434606075287,-1.0909942388534546
1664206386134075600,9.41807568359375,1.6303962469100952,0.8765493631362915,-1.4945462942123413
1664206386144031700,9.42803173828125,1.3598979711532593,1.2448136806488037,-1.999899983406067
1664206386153987600,9.437987548828126,1.1341073513031006,1.3900007009506226,-2.3726236820220947
1664206386163943700,9.447943603515625,0.8897314667701721,1.3798950910568237,-2.408677101135254
1664206386173899800,9.457899658203125,0.6261387467384338,1.3164583444595337,-2.1497883796691895
1664206386183855900,9.46785595703125,0.3856408894062042,1.2523589134216309,-1.696663737297058
1664206386193811700,9.477811767578125,0.22808483242988586,1.1583858728408813,-1.1860432624816895
1664206386203767800,9.487767822265624,0.13882392644882202,1.0366809368133545,-0.7463200092315674
1664206386213723600,9.4977236328125,0.059960540384054184,0.8534041047096252,-0.45345643162727356
1664206386223679700,9.5076796875,-0.06342265009880066,0.6464453339576721,-0.3020586669445038
1664206386233635600,9.517635498046875,-0.22495029866695404,0.47691088914871216,-0.2734842598438263
1664206386243591700,9.527591796875,-0.41872429847717285,0.41591039299964905,-0.35408324003219604
1664206386253546800,9.537546630859374,-0.6052411794662476,0.45567113161087036,-0.49948304891586304
1664206386263502600,9.547502685546876,-0.776388943195343,0.5629339218139648,-0.6232502460479736
1664206386273458700,9.557458740234376,-0.9861485958099365,0.7069566249847412,-0.6851109862327576
1664206386283414500,9.56741455078125,-1.195564866065979,0.8037803769111633,-0.689421534538269
1664206386293370600,9.57737060546875,-1.3192058801651,0.7778939008712769,-0.632404088973999
1664206386303326700,9.58732666015625,-1.3839612007141113,0.6430021524429321,-0.5267798900604248
1664206386313282800,9.59728271484375,-1.5112760066986084,0.42823657393455505,-0.41800230741500854
1664206386323238700,9.60723876953125,-1.642293930053711,0.1787732094526291,-0.32129573822021484
1664206386333194800,9.61719482421875,-1.6146495342254639,0.03375956043601036,-0.2394898235797882
1664206386343150600,9.627150634765625,-1.401087760925293,0.03380749747157097,-0.15730227530002594
1664206386353106700,9.637106689453125,-1.1386240720748901,0.12230167537927628,-0.026920298114418983
1664206386363062500,9.6470625,-0.9783521890640259,0.15571528673171997,0.19962815940380096
1664206386373018600,9.6570185546875,-0.9062124490737915,0.012659070082008839,0.5981161594390869
1664206386382974700,9.666974609375,-0.9949556589126587,-0.2663984000682831,1.1541024446487427
1664206386392930800,9.676930908203126,-1.5341229438781738,-0.5234895944595337,1.6982495784759521
1664206386402886700,9.68688671875,-2.6442155838012695,-0.6052302718162537,2.1608340740203857
1664206386412842200,9.69684228515625,-3.2805724143981934,-0.5768697261810303,2.7086284160614014
1664206386422798300,9.70679833984375,-3.586441993713379,-0.6192712187767029,3.1246325969696045
1664206386432754200,9.716754150390624,-4.666995048522949,-0.5200285315513611,3.075979709625244
1664206386442710300,9.726710205078126,-6.2809295654296875,-0.06324874609708786,2.322866916656494
1664206386452665300,9.736665283203125,-7.2363104820251465,0.8571370840072632,1.3578624725341797
1664206386462621200,9.74662109375,-7.250659465789795,1.8355046510696411,0.7666380405426025
1664206386472577300,9.756577392578125,-6.866568565368652,2.3846778869628906,0.7749218344688416
1664206386482533000,9.766533203125,-6.5560173988342285,2.3924753665924072,1.3293395042419434
1664206386492489200,9.7764892578125,-6.393734455108643,2.0140538215637207,2.1810686588287354
1664206386502445300,9.7864453125,-6.226119041442871,1.4903544187545776,3.0932536125183105
1664206386512401400,9.7964013671875,-6.032129287719727,1.1297270059585571,3.9065701961517334
1664206386522357200,9.806357177734375,-5.76069974899292,0.9995543956756592,4.517871856689453
1664206386532313300,9.816313232421875,-5.367959022521973,0.9506928324699402,4.86591911315918
1664206386542269200,9.826269287109374,-4.778903961181641,0.9128432273864746,4.9712443351745605
1664206386552225300,9.836225341796874,-3.926241159439087,0.7909239530563354,4.894773960113525
1664206386562181000,9.84618115234375,-2.9271209239959717,0.551780104637146,4.7344770431518555
1664206386572137500,9.856137451171875,-2.0066545009613037,0.3385935127735138,4.5402913093566895
1664206386582093300,9.86609326171875,-1.256672739982605,0.2463112473487854,4.266770362854004
1664206386592049400,9.87604931640625,-0.6669354438781738,0.3449659049510956,3.824113607406616
1664206386602005200,9.886005126953124,-0.11891786754131317,0.6414622664451599,3.166928291320801
1664206386611961300,9.89596142578125,0.47449779510498047,1.030792236328125,2.312100887298584
1664206386621917200,9.905917236328126,1.1199175119400024,1.2371113300323486,1.4380686283111572
1664206386631873300,9.915873291015625,1.8001818656921387,1.1923412084579468,0.7676393985748291
1664206386641828400,9.925828369140625,2.380110025405884,1.027494192123413,0.3614721894264221
1664206386651784200,9.9357841796875,2.737151622772217,0.8841489553451538,0.15385881066322327
1664206386661740300,9.945740234375,2.943509340286255,0.7702133655548096,0.06885336339473724
1664206386671696100,9.955696044921876,3.159954786300659,0.6473926305770874,0.019346533343195915
1664206386681652200,9.96565234375,3.4856157302856445,0.49896931648254395,-0.07432376593351364
1664206386691608000,9.975608154296875,3.8836216926574707,0.34773266315460205,-0.26024702191352844
1664206386701564400,9.985564453125,4.313380718231201,0.15368250012397766,-0.5214921832084656
1664206386711520300,9.995520263671875,4.683283805847168,-0.11291110515594482,-0.887191653251648
1664206386721476400,10.005476318359374,4.903597354888916,-0.3942980468273163,-1.3302489519119263
1664206386731432200,10.01543212890625,5.004717826843262,-0.5349246859550476,-1.7990481853485107
1664206386741388300,10.02538818359375,5.0158772468566895,-0.4357067346572876,-2.2468366622924805
1664206386751344000,10.03534423828125,5.052990436553955,-0.17032912373542786,-2.7129828929901123
1664206386761300200,10.04530029296875,5.2435479164123535,0.012976252473890781,-3.2195515632629395
1664206386771256300,10.05525634765625,5.654906272888184,0.07855712622404099,-3.732919216156006
1664206386781212400,10.06521240234375,6.092119216918945,0.1986108273267746,-4.293824672698975
1664206386791168300,10.075168212890626,6.3546366691589355,0.4411020278930664,-4.973389148712158
1664206386801124400,10.085124267578125,6.480069160461426,0.9536625146865845,-5.847381114959717
1664206386811080200,10.095080078125,6.141757011413574,1.5900623798370361,-6.7510504722595215
1664206386821036300,10.105036376953125,5.087032794952393,2.0604097843170166,-7.086792469024658
1664206386830992100,10.1149921875,3.5340213775634766,2.2279393672943115,-6.282231330871582
1664206386840947500,10.124947509765626,2.0713248252868652,2.022526502609253,-4.573183536529541
1664206386850903300,10.1349033203125,1.180895209312439,1.472680687904358,-2.470038652420044
1664206386860859400,10.144859375,0.7870860695838928,0.8114407062530518,-0.5569958686828613
1664206386870815200,10.154815185546875,0.6153308153152466,0.3102753162384033,0.6419054269790649
1664206386880771300,10.164771240234375,0.5344650149345398,0.12729856371879578,1.004051685333252
1664206386890727200,10.17472705078125,0.5341347455978394,0.2592906951904297,0.685462236404419
1664206386900683500,10.18468359375,0.5261519551277161,0.6025795936584473,-0.027715517207980156
1664206386910639400,10.194639404296876,0.4471612572669983,0.9893089532852173,-0.828241765499115
1664206386920595500,10.204595458984375,0.30147597193717957,1.2903356552124023,-1.497864842414856
1664206386930551300,10.21455126953125,0.10499059408903122,1.4502009153366089,-1.9058901071548462
1664206386940507400,10.22450732421875,-0.04652462527155876,1.44780433177948,-2.084444284439087
1664206386950463200,10.234463134765624,-0.11259978264570236,1.282151699066162,-2.1141176223754883
1664206386960419300,10.24441943359375,-0.09790205955505371,0.9957450032234192,-2.0627799034118652
1664206386970375400,10.25437548828125,-0.07302360981702805,0.7328622341156006,-2.016550064086914
1664206386980331300,10.264331298828125,-0.08369836211204529,0.5697481632232666,-1.9810956716537476
1664206386990287400,10.274287353515625,-0.12165479362010956,0.5233417749404907,-1.9359530210494995
1664206387000243200,10.2842431640625,-0.20313580334186554,0.5769370794296265,-1.844314694404602
1664206387010199300,10.29419921875,-0.3381652534008026,0.7189978361129761,-1.6899338960647583
1664206387020155100,10.304155029296876,-0.5366629362106323,0.8829617500305176,-1.444200038909912
1664206387030111200,10.314111328125,-0.7363805770874023,0.9258860349655151,-1.1095507144927979
1664206387040067000,10.324067138671875,-0.8665137887001038,0.8024378418922424,-0.762121856212616
1664206387050022400,10.3340224609375,-0.9395443201065063,0.5825611352920532,-0.45237305760383606
1664206387059978200,10.343978271484374,-0.9784570932388306,0.32900506258010864,-0.17387272417545319
1664206387069934300,10.353934326171874,-0.994336724281311,0.20966294407844543,0.06306977570056915
1664206387079890200,10.36389013671875,-1.0044645071029663,0.14516304433345795,0.2648993134498596
1664206387089846300,10.37384619140625,-1.0797823667526245,0.033971816301345825,0.4657626450061798
1664206387099802400,10.38380224609375,-1.244483232498169,-0.14773167669773102,0.6785422563552856
1664206387109758500,10.393758544921875,-1.4629830121994019,-0.3026943504810333,0.8723892569541931
1664206387119714300,10.40371435546875,-1.6046288013458252,-0.4152006506919861,0.9860947728157043
1664206387129670400,10.41367041015625,-1.5992255210876465,-0.3194195330142975,0.9868798851966858
1664206387139626200,10.423626220703126,-1.4709336757659912,-0.051056258380413055,0.910058319568634
1664206387149582300,10.433582275390625,-1.4250025749206543,0.1904570311307907,0.9271968603134155
1664206387159538200,10.4435380859375,-1.8940457105636597,0.27411943674087524,1.1324232816696167
1664206387169494300,10.453494384765625,-2.5382204055786133,0.1085515096783638,1.5733611583709717
1664206387179450400,10.463450439453124,-3.0279579162597656,-0.03609834983944893,2.087317943572998
1664206387189406500,10.473406494140624,-3.5858840942382812,0.09460959583520889,2.5524942874908447
1664206387199362300,10.4833623046875,-4.343920707702637,0.487641304731369,2.8674423694610596
1664206387209318400,10.493318359375,-4.9277801513671875,0.9357855319976807,3.054128408432007
1664206387219274200,10.503274169921875,-5.090456485748291,1.287516713142395,3.2570888996124268
1664206387229230300,10.513230224609375,-5.038475036621094,1.4821738004684448,3.5227580070495605
1664206387239186200,10.523186279296874,-5.023089408874512,1.5766880512237549,3.7822749614715576
1664206387249142500,10.533142578125,-5.051117420196533,1.6045899391174316,3.990567922592163
1664206387259097300,10.543097412109375,-4.970544815063477,1.6574443578720093,4.090089321136475
1664206387269053200,10.55305322265625,-4.741686820983887,1.80892014503479,4.0360565185546875
1664206387279009300,10.56300927734375,-4.44373893737793,1.955262541770935,3.8857779502868652
1664206387288965000,10.572965087890625,-4.084722995758057,2.0499610900878906,3.740464210510254
1664206387298921500,10.58292138671875,-3.618659019470215,2.0685195922851562,3.61220645904541
1664206387308877300,10.592877197265626,-3.0551562309265137,2.0407626628875732,3.4409985542297363
1664206387318833400,10.60283349609375,-2.4964194297790527,2.089365243911743,3.201676368713379
1664206387328789200,10.612789306640625,-1.949686884880066,2.271472454071045,2.9174015522003174
1664206387338745300,10.622745361328125,-1.4976751804351807,2.440732002258301,2.6531529426574707
1664206387348701200,10.632701171875,-1.106784462928772,2.148350715637207,2.6787242889404297
1664206387358657300,10.6426572265625,-0.6389836668968201,1.343572735786438,2.999699592590332
1664206387368613000,10.652613037109376,-0.10454931110143661,0.4077022671699524,3.387740135192871
1664206387378569500,10.662569580078125,0.44647201895713806,-0.22425201535224915,3.5894694328308105
1664206387388525300,10.672525390625,0.9361940622329712,-0.36300429701805115,3.445222854614258
1664206387398481400,10.6824814453125,1.3665326833724976,-0.10240147262811661,2.9434847831726074
1664206387408439800,10.692439697265625,1.7714370489120483,0.32528889179229736,2.150751829147339
1664206387418396000,10.70239599609375,2.2043373584747314,0.766745388507843,1.1595847606658936
1664206387428352000,10.71235205078125,2.6958844661712646,0.9527698159217834,0.13899357616901398
1664206387438308000,10.72230810546875,3.202941417694092,0.44724035263061523,-0.6562212705612183
1664206387448264000,10.732263916015626,3.6984167098999023,-0.46936455368995667,-1.1375575065612793
1664206387458220000,10.742219970703125,4.152673244476318,-1.350895881652832,-1.434114933013916
1664206387468174800,10.7521748046875,4.503793239593506,-1.9070779085159302,-1.6409831047058105
1664206387478131000,10.762130859375,4.814737319946289,-1.9128918647766113,-1.8702000379562378
1664206387488087000,10.772087158203124,5.109368801116943,-1.2709903717041016,-2.1520309448242188
1664206387498043000,10.78204296875,5.414383411407471,-0.4427505135536194,-2.5124030113220215
1664206387507999000,10.7919990234375,5.889204502105713,-0.06398297846317291,-2.9550070762634277
1664206387517954800,10.801954833984375,6.574488162994385,-0.27137237787246704,-3.5057077407836914
1664206387527911000,10.811910888671875,7.286454677581787,-0.5970346331596375,-4.116549491882324
1664206387537866800,10.82186669921875,7.542964935302734,-0.8652695417404175,-4.549010276794434
1664206387547822800,10.83182275390625,7.444193363189697,-1.0728310346603394,-4.7007670402526855
1664206387557779000,10.841779052734376,7.210809230804443,-0.7640832662582397,-4.991162300109863
1664206387567735000,10.851735107421876,6.78889274597168,0.3603845536708832,-5.489246845245361
1664206387577691000,10.86169091796875,6.172835350036621,2.0339860916137695,-5.698516845703125
1664206387587647000,10.87164697265625,5.108857154846191,3.0781235694885254,-5.371410846710205
1664206387597602800,10.881602783203125,3.8438942432403564,2.9945268630981445,-4.296485900878906
1664206387607559000,10.891558837890624,2.9855244159698486,2.106783628463745,-2.65860915184021
1664206387617514800,10.9015146484375,2.627119541168213,0.9837424159049988,-0.9562513828277588
1664206387627470800,10.911470947265625,2.441601514816284,0.15499863028526306,0.3164384067058563
1664206387637427000,10.921427001953125,2.1247990131378174,-0.11078270524740219,0.9079669713973999
1664206387647383000,10.931383056640625,1.722163200378418,0.13111834228038788,0.8092963099479675
1664206387657339000,10.9413388671875,1.3988306522369385,0.6792014241218567,0.17485356330871582
1664206387667294000,10.9512939453125,1.2260085344314575,1.3190096616744995,-0.7304946780204773
1664206387677249800,10.961249755859376,1.137649416923523,1.8829491138458252,-1.6233031749725342
1664206387687206100,10.9712060546875,1.0553367137908936,2.258046865463257,-2.3231287002563477
1664206387697162000,10.981161865234375,0.9724463224411011,2.3412909507751465,-2.6504979133605957
1664206387707118000,10.9911181640625,0.9229962229728699,2.0976688861846924,-2.559860944747925
1664206387717074000,11.001073974609374,0.8271735906600952,1.5080887079238892,-2.111961603164673
1664206387727030000,11.011030029296874,0.7005242705345154,0.7283077239990234,-1.4901944398880005
1664206387736985900,11.02098583984375,0.5815507769584656,0.09492171555757523,-0.946525514125824
1664206387746942000,11.03094189453125,0.40462976694107056,-0.17445115745067596,-0.6572252511978149
1664206387756898000,11.04089794921875,0.16292980313301086,-0.08817247301340103,-0.6401461362838745
1664206387766854000,11.05085400390625,-0.09223432093858719,0.2221214771270752,-0.778252899646759
1664206387776810000,11.06081005859375,-0.3604673743247986,0.5596065521240234,-0.8991995453834534
1664206387786765800,11.070765869140626,-0.6083024740219116,0.7634462714195251,-0.9100401997566223
1664206387796722000,11.080721923828126,-0.782135546207428,0.7877012491226196,-0.7892535924911499
1664206387806677800,11.090677734375,-0.8593837022781372,0.5875647068023682,-0.5859529376029968
1664206387816633900,11.1006337890625,-0.8909757137298584,0.2193448692560196,-0.3463435769081116
1664206387826589700,11.110589599609375,-0.9347248077392578,-0.19575326144695282,-0.1317300647497177
1664206387836546000,11.120546142578124,-1.0572831630706787,-0.46451520919799805,0.0264811422675848
1664206387846502000,11.130501953125,-1.3142915964126587,-0.48706018924713135,0.10257404297590256
1664206387856458000,11.1404580078125,-1.698183536529541,-0.307685911655426,0.08364829421043396
1664206387866413800,11.150413818359375,-2.0770938396453857,-0.0009384979493916035,0.0012871057260781527
1664206387876370000,11.160369873046875,-2.4321351051330566,0.26700159907341003,-0.10874885320663452
1664206387886325000,11.170324951171875,-2.692666530609131,0.2885734736919403,-0.12456589937210083
1664206387896281000,11.180281005859374,-2.828864336013794,0.06057466194033623,0.08264721184968948
1664206387906237000,11.19023681640625,-2.83577561378479,-0.28607675433158875,0.5873546004295349
1664206387916193000,11.200193115234375,-2.9514245986938477,-0.5173107981681824,1.2825863361358643
1664206387926148900,11.21014892578125,-3.2560839653015137,-0.5696828961372375,1.953331470489502
1664206387936105000,11.22010498046875,-3.4726309776306152,-0.5195563435554504,2.402853488922119
1664206387946060800,11.230060791015624,-3.7740612030029297,-0.5058075189590454,2.5575952529907227
1664206387956017000,11.240016845703124,-4.474276065826416,-0.27467548847198486,2.529846429824829
1664206387965973000,11.249972900390626,-5.4167962074279785,0.14874739944934845,2.3127858638763428
1664206387975929000,11.25992919921875,-5.979963302612305,0.7544575333595276,2.0974743366241455
1664206387985885000,11.269885009765625,-6.104757785797119,1.2726930379867554,2.0548641681671143
1664206387995841000,11.279841064453125,-6.056145668029785,1.484578013420105,2.194894313812256
1664206388005796900,11.289796875,-6.013248443603516,1.4454681873321533,2.4438273906707764
1664206388015753000,11.2997529296875,-5.999271392822266,1.346989631652832,2.6586015224456787
1664206388025708800,11.309708740234376,-5.950559616088867,1.3614872694015503,2.7248001098632812
1664206388035665200,11.3196650390625,-5.802590370178223,1.5846340656280518,2.621859073638916
1664206388045621000,11.32962109375,-5.510973930358887,1.9940003156661987,2.4479246139526367
1664206388055577000,11.3395771484375,-5.187374591827393,2.517829179763794,2.2664835453033447
1664206388065533000,11.349532958984375,-4.828790187835693,2.8566105365753174,2.1743297576904297
1664206388075488800,11.35948876953125,-4.387437343597412,2.6097195148468018,2.4197142124176025
1664206388085444900,11.36944482421875,-3.770110845565796,1.7519536018371582,3.064469337463379
1664206388095400000,11.37939990234375,-3.0020391941070557,0.694572925567627,3.823700428009033
1664206388105356000,11.38935595703125,-2.358290195465088,-0.03935220092535019,4.407214164733887
1664206388115311900,11.399311767578125,-2.0069363117218018,-0.21088720858097076,4.66211462020874
1664206388125268000,11.40926806640625,-1.755409598350525,-0.046603456139564514,4.517603874206543
1664206388135223800,11.419223876953126,-1.414048194885254,0.25693565607070923,3.9492223262786865
1664206388145180000,11.429179931640626,-0.8929027915000916,0.6182776093482971,3.0578458309173584
1664206388155135700,11.4391357421875,-0.15348222851753235,0.9336872100830078,1.9805241823196411
1664206388165092000,11.449092041015625,0.6924974918365479,1.1308668851852417,0.919329047203064
1664206388175048000,11.4590478515625,1.4608466625213623,1.1469979286193848,0.04312429949641228
1664206388185004000,11.469004150390624,2.0712740421295166,0.959816038608551,-0.5552975535392761
1664206388194960000,11.4789599609375,2.56501841545105,0.6540228128433228,-0.9112237095832825
1664206388204916000,11.488916015625,2.994331121444702,0.35914909839630127,-1.1501835584640503
1664206388214871800,11.498871826171875,3.4052257537841797,0.03617345169186592,-1.2842977046966553
1664206388224828000,11.508827880859375,3.695704936981201,-0.35770779848098755,-1.3243210315704346
1664206388234784000,11.518783935546875,3.797144651412964,-0.7487911581993103,-1.3073385953903198
1664206388244740000,11.528739990234374,3.7872233390808105,-1.0942960977554321,-1.3060972690582275
1664206388254696000,11.538696044921876,3.726402997970581,-1.3416694402694702,-1.3923959732055664
1664206388264652000,11.548652099609376,3.6451351642608643,-1.4344727993011475,-1.5814253091812134
1664206388274607900,11.55860791015625,3.62347412109375,-1.3881028890609741,-1.859931230545044
1664206388284564000,11.56856396484375,3.7745323181152344,-1.426816463470459,-2.290771007537842
1664206388294519000,11.57851904296875,4.137768745422363,-1.5892616510391235,-2.9128258228302
1664206388304475000,11.588474853515624,4.78279447555542,-1.727989673614502,-3.681175708770752
1664206388314431000,11.598430908203126,5.712162017822266,-1.7089309692382812,-4.538429260253906
1664206388324386800,11.60838671875,6.305370330810547,-1.0099700689315796,-5.494658470153809
1664206388334343000,11.618343017578125,5.960147857666016,0.356963187456131,-6.369382381439209
1664206388344298800,11.628298828125,4.713526725769043,2.069002628326416,-6.898772239685059
1664206388354254800,11.6382548828125,3.126723289489746,3.4886014461517334,-6.944563388824463
1664206388364211000,11.6482109375,1.853071689605713,3.915668249130249,-6.516143798828125
1664206388374167000,11.6581669921875,1.1558763980865479,3.047301769256592,-5.488795280456543
1664206388384123000,11.668122802734375,0.9222984910011292,1.3535244464874268,-3.7553842067718506
1664206388394079000,11.678078857421875,0.8382872343063354,-0.3092065751552582,-1.8272254467010498
1664206388404034800,11.688034912109375,0.7588730454444885,-1.3672232627868652,-0.29374825954437256
1664206388413988000,11.697988037109376,0.7348545789718628,-1.706329107284546,0.6043218374252319
1664206388423944200,11.707944091796875,0.8201324343681335,-1.4905800819396973,0.8427402973175049
1664206388433900000,11.717900146484375,0.9662718176841736,-1.0384809970855713,0.5320881009101868
1664206388443856100,11.727856201171875,1.111274003982544,-0.46887481212615967,-0.06999559700489044
1664206388453812200,11.737812255859374,1.1700457334518433,0.12422873824834824,-0.7802627682685852
1664206388463768300,11.747768310546874,1.1433435678482056,0.5856727957725525,-1.4827232360839844
1664206388473724200,11.75772412109375,1.0988503694534302,0.8846379518508911,-1.9843000173568726
1664206388483680300,11.76768017578125,1.0470819473266602,0.9120176434516907,-2.2495524883270264
1664206388493636000,11.777635986328125,0.9949577450752258,0.7012872695922852,-2.233011245727539
1664206388503591200,11.787591064453125,0.954963743686676,0.454504132270813,-1.9772881269454956
1664206388513547300,11.79754736328125,0.938367486000061,0.31005826592445374,-1.6067702770233154
1664206388523503000,11.807503173828126,0.9863222241401672,0.39923685789108276,-1.1937038898468018
1664206388533459200,11.817459228515625,1.0083234310150146,0.7429755926132202,-0.9126107096672058
1664206388543415000,11.8274150390625,0.9255629777908325,1.1858043670654297,-0.7867203950881958
1664206388553371100,11.83737109375,0.7299239635467529,1.4518963098526,-0.6792922019958496
1664206388563327000,11.847326904296875,0.5029147863388062,1.6099274158477783,-0.4928547143936157
1664206388573283000,11.857282958984374,0.3501412272453308,1.6254438161849976,-0.2479322999715805
1664206388583239200,11.8672392578125,0.3067258596420288,1.5020990371704102,0.020009394735097885
1664206388593195300,11.8771953125,0.3378898799419403,1.2241467237472534,0.3141272962093353
1664206388603151000,11.887151123046875,0.3722286820411682,0.6707628965377808,0.6631510853767395
1664206388613107200,11.897107177734375,0.41978955268859863,-0.04261377453804016,1.112555742263794
1664206388623063000,11.90706298828125,0.5532780885696411,-0.7026052474975586,1.6413987874984741
1664206388633019100,11.91701904296875,0.7137410044670105,-1.418426752090454,2.056320905685425
1664206388642975000,11.92697509765625,0.9058955311775208,-2.211709976196289,2.2142086029052734
1664206388652931300,11.936931396484376,1.09205162525177,-2.852095365524292,2.0317330360412598
1664206388662887200,11.94688720703125,1.278882384300232,-3.215003728866577,1.4957785606384277
1664206388672843300,11.95684326171875,1.382564663887024,-3.4032416343688965,0.651081919670105
1664206388682799000,11.966799072265625,1.0266501903533936,-3.4185380935668945,-0.34390223026275635
1664206388692755200,11.976755126953124,-0.02587926760315895,-3.0458688735961914,-1.3153374195098877
1664206388702711000,11.9867109375,-1.4194488525390625,-1.988685965538025,-2.010629177093506
1664206388712667100,11.996667236328125,-2.611821174621582,-0.5402909517288208,-2.218682050704956
1664206388722623200,12.006623291015625,-3.3743879795074463,0.4804465174674988,-1.8993561267852783
1664206388732578300,12.016578369140625,-3.9204750061035156,0.9039881825447083,-1.1346019506454468
1664206388742534100,12.0265341796875,-4.515875339508057,0.7800867557525635,-0.1050473228096962
1664206388752490200,12.036490234375,-5.1147847175598145,0.19368478655815125,1.0644103288650513
1664206388762446000,12.046446044921876,-5.542237758636475,-0.4804081618785858,2.2134642601013184
1664206388772402200,12.056402099609375,-5.770045280456543,-1.0473169088363647,3.1295242309570312
1664206388782358300,12.066358154296875,-5.863139629364014,-1.2868304252624512,3.6864211559295654
1664206388792314400,12.076314453125,-5.916615962982178,-1.376594066619873,3.8177907466888428
1664206388802270200,12.086270263671874,-5.9187211990356445,-1.3291696310043335,3.6949615478515625
1664206388812226000,12.09622607421875,-5.841696739196777,-1.2103915214538574,3.4535300731658936
1664206388822182100,12.10618212890625,-5.6690568923950195,-1.0749620199203491,3.1788980960845947
1664206388832138000,12.116137939453125,-5.38645601272583,-0.9638592600822449,2.952972173690796
1664206388842094000,12.126093994140625,-5.001810550689697,-0.920062780380249,2.754164695739746
1664206388852050200,12.13605029296875,-4.597236156463623,-0.9349128007888794,2.554525136947632
1664206388862006300,12.14600634765625,-4.182431221008301,-0.9924165606498718,2.3891425132751465
1664206388871962000,12.155962158203126,-3.7968993186950684,-0.9928205609321594,2.262768268585205
1664206388881918200,12.165918212890626,-3.50212025642395,-0.9025481939315796,2.1552176475524902
1664206388891874000,12.1758740234375,-3.3785860538482666,-0.8188858032226562,2.074925422668457
1664206388901830100,12.185830078125,-3.2992234230041504,-0.8534107804298401,2.0563926696777344
1664206388911786000,12.195785888671875,-3.049839735031128,-0.9733608961105347,2.041490077972412
1664206388921742000,12.2057421875,-2.6061902046203613,-0.9984502196311951,1.8547084331512451
1664206388931698200,12.2156982421875,-2.1129841804504395,-0.830854058265686,1.4467273950576782
1664206388941654300,12.225654296875,-1.6380888223648071,-0.46640631556510925,0.9640781283378601
1664206388951609000,12.235609130859375,-1.2532234191894531,0.003763579297810793,0.5747626423835754
1664206388961565200,12.245565185546875,-1.007558822631836,0.34178051352500916,0.3361969292163849
1664206388971521000,12.25552099609375,-0.7697829604148865,0.5342045426368713,0.19923187792301178
1664206388981477400,12.265477294921874,-0.4409233331680298,0.6495135426521301,0.10916057229042053
1664206388991433200,12.27543310546875,0.1281750202178955,0.7645301818847656,0.0085439532995224
1664206389001389300,12.285389404296875,1.017282247543335,0.835045576095581,-0.13598792254924774
1664206389011345200,12.29534521484375,2.094254970550537,0.8905134201049805,-0.24392105638980865
1664206389021301200,12.30530126953125,3.0921339988708496,1.0392708778381348,-0.2849563658237457
1664206389031257000,12.315257080078124,3.8819875717163086,1.2284163236618042,-0.2749500870704651
1664206389041213200,12.325213134765624,4.4008002281188965,1.438523530960083,-0.20325805246829987
1664206389051169300,12.335169189453126,4.698179244995117,1.6068675518035889,-0.14154408872127533
1664206389061125400,12.34512548828125,4.896170139312744,1.6025390625,-0.14356914162635803
1664206389071081200,12.355081298828125,5.062164306640625,1.3932100534439087,-0.23856304585933685
1664206389081037300,12.365037353515625,5.270799160003662,1.0536408424377441,-0.43610408902168274
1664206389090993200,12.3749931640625,5.6320390701293945,0.7393673062324524,-0.7252829074859619
1664206389100949200,12.38494921875,6.262208938598633,0.6136506199836731,-1.073228120803833
1664206389110905000,12.394905029296876,7.16579008102417,0.6537940502166748,-1.4611499309539795
1664206389120861200,12.404861083984375,8.067708969116211,0.8517534732818604,-1.847164511680603
1664206389130817300,12.4148173828125,8.60319995880127,1.2470483779907227,-2.174283027648926
1664206389140773000,12.424773193359375,8.725274085998535,1.757572889328003,-2.319406270980835
1664206389150729200,12.434729248046875,8.480820655822754,2.0927324295043945,-2.256502151489258
1664206389160685000,12.44468505859375,7.9486823081970215,2.2342286109924316,-2.0017809867858887
1664206389170640100,12.45464013671875,7.416801452636719,2.1363067626953125,-1.6148196458816528
1664206389180596200,12.46459619140625,7.0974626541137695,1.9802868366241455,-1.2526530027389526
1664206389190552300,12.47455224609375,7.08735990524292,1.9125019311904907,-1.0165210962295532
1664206389200508200,12.484508056640625,7.244805812835693,1.8181179761886597,-0.9431062936782837
1664206389210464300,12.49446435546875,7.234097957611084,1.634237289428711,-1.038557767868042
1664206389220420000,12.504420166015626,6.952718734741211,1.3177586793899536,-1.191161870956421
1664206389230376200,12.514376220703125,6.445606708526611,0.891749918460846,-1.3205119371414185
1664206389240332000,12.52433203125,5.83022928237915,0.647874653339386,-1.434287190437317
1664206389250288000,12.5342880859375,5.222434997558594,0.6446838974952698,-1.640891194343567
1664206389260244200,12.544244140625,4.659786701202393,0.8671577572822571,-1.998009204864502
1664206389270200300,12.554200439453124,4.140020847320557,1.2443140745162964,-2.422440528869629
1664206389280156200,12.56415625,3.665147304534912,1.6541284322738647,-2.771937131881714
1664206389290112300,12.5741123046875,3.2372002601623535,2.036323308944702,-2.9903931617736816
1664206389300068000,12.584068115234375,2.889871120452881,2.3073537349700928,-3.062973976135254
1664206389310024200,12.594024169921875,2.62919282913208,2.4403085708618164,-2.9976389408111572
1664206389319980000,12.60397998046875,2.4559388160705566,2.4377918243408203,-2.836118459701538
1664206389329936400,12.613936279296874,2.3636982440948486,2.3542959690093994,-2.628904104232788
1664206389339892200,12.623892333984376,2.3180947303771973,2.208333969116211,-2.4202988147735596
1664206389349848300,12.633848388671876,2.342344284057617,2.0032155513763428,-2.20857310295105
1664206389359804200,12.64380419921875,2.4127390384674072,1.7875068187713623,-1.9721970558166504
