time,seconds_elapsed,z,y,x
1662729295900810000,0.03181005859375,-0.004873158994317055,0.018743863436579702,-0.11452011314928531
1662729295910766000,0.04176611328125,0.02182663188278675,0.04898030400723219,-0.17041355754584073
1662729295920722000,0.051721923828125,0.05140928471982479,0.06707037971019744,-0.17458938192576168
1662729295930677000,0.061677001953125,0.057388943651318546,0.072945993745327,-0.13893705378621815
1662729295940633000,0.071633056640625,0.01725041000843048,0.038817221911251545,-0.09034808718413113
1662729295950589000,0.0815888671875,-0.03758475750684738,-0.004751578441262245,-0.01025426751077175
1662729295960545000,0.091544921875,-0.07223521512746811,-0.026686639134585854,0.05530570763647556
1662729295970500000,0.1015,-0.11623159324228763,-0.056392626090347765,0.10327508103549479
1662729295980456200,0.111456298828125,-0.1869476359784603,-0.09952741893976927,0.09170242440253495
1662729295990412000,0.121412109375,-0.22042788077592848,-0.09327712637335062,0.10603782374709844
1662729296000368000,0.1313681640625,-0.1706874060511589,-0.04970335758477449,0.11415127983689308
1662729296010323000,0.141322998046875,-0.08672609729468822,-0.026970424512028694,0.041001287952065466
1662729296020279000,0.151279052734375,0.004911737439036369,-0.009111234955489635,-0.028463877940177917
1662729296030235100,0.161235107421875,0.08926526038348674,-0.0047314124360680575,-0.047915889646112916
1662729296040191000,0.17119091796875,0.12245616684556007,0.004203881430625916,-0.05037497323602438
1662729296050147000,0.18114697265625,0.08082827142775058,0.01379530111849308,-0.030013153208792206
1662729296060102000,0.191101806640625,-0.01533200916647911,0.018569091391563413,0.022807751874625682
1662729296070058000,0.20105810546875,-0.09278408215939998,0.020934066957235334,0.040321488994359965
1662729296080014000,0.21101416015625,-0.1649707819700241,0.022173545624315737,0.022337796275317668
1662729296089970200,0.22097021484375,-0.21481763967871664,0.015080957014858723,0.0175239662528038
1662729296099925000,0.230925048828125,-0.1897106709510088,0.002047287918627262,0.011988251696527003
1662729296109880800,0.240880859375,-0.14299685057103634,-0.015250468362867831,0.013488427126407623
1662729296119837000,0.2508369140625,-0.10759878945350647,-0.051935062159597874,-0.02646598212122917
1662729296129793000,0.26079296875,-0.12225509131550788,-0.06279109495580196,-0.043425592489540574
1662729296139748000,0.270748046875,-0.21090134301781654,-0.0403115521222353,0.024260581031441686
1662729296149704000,0.280703857421875,-0.26834873885810373,0.02226706912666559,0.11115385158658027
1662729296159660000,0.290659912109375,-0.2961158667057752,0.08460165248662233,0.16626403665095565
1662729296169616000,0.300615966796875,-0.30471769083440303,0.08064063990116119,0.15803601427078245
1662729296179571000,0.310571044921875,-0.29535248111784457,-0.023821897353231907,0.07221797173172236
1662729296189527000,0.320527099609375,-0.2635895616322756,-0.14989713147878647,-0.0037599370554089544
1662729296199483000,0.33048291015625,-0.18768530260324476,-0.13881196610182522,0.00010930559337139129
1662729296209439000,0.34043896484375,-0.13323708857893943,-0.10364712921828031,0.0443263407215476
1662729296219394800,0.350394775390625,-0.36764030321538443,-0.1889808953717351,0.03840191910862922
1662729296229350100,0.36035009765625,-0.7743103020489216,-0.23256050937920808,0.21113018333762884
1662729296239306000,0.370305908203125,-1.0025947415441274,0.019082886132597923,0.9230909967184067
1662729296249262000,0.380261962890625,-1.3013643376290798,0.031847090637683866,1.0995523099958897
1662729296259218000,0.390218017578125,-1.8495400716930628,-0.27393326099216936,0.3541524606108665
1662729296269173200,0.40017333984375,-1.8043682200580835,-0.031046295648813244,0.6040113107934594
1662729296279129000,0.410129150390625,-1.4801035327106713,0.18986644603461025,0.34104105010330676
1662729296289085000,0.4200849609375,-1.3278987088114023,0.09282324512600898,-0.03828735281825065
1662729296299041000,0.430041015625,-1.0745645837336777,0.3365203578084707,0.12466828993707894
1662729296308995800,0.439995849609375,-0.8641594998002052,0.6584276683747768,0.5266971849665045
1662729296318952200,0.4499521484375,-0.716843032464385,0.7962590990066528,0.7130833876699209
1662729296328908000,0.459907958984375,-0.4105857109725475,0.8801245461732149,0.9148480690300465
1662729296338864000,0.469864013671875,-0.11456219872534275,0.9468407056182623,1.1856415706917642
1662729296348820000,0.479820068359375,-0.22119594253897665,0.6127163030356169,1.0227829585701227
1662729296358775000,0.489775146484375,-0.5000257434010505,0.2961187893152237,0.6540180352389812
1662729296368731100,0.499731201171875,-0.8200093924283981,0.2597849086523056,0.5338838816002011
1662729296378687200,0.509687255859375,-1.0081582208901643,0.2730027021437883,0.6288296718381345
1662729296388643000,0.51964306640625,-0.9142401662647723,0.41286593086421486,0.9777695123672485
1662729296398598000,0.529597900390625,-0.6787514944791794,0.40583120992183686,1.2450151122890412
1662729296408554000,0.539553955078125,-0.305411518317461,0.13121113570928572,1.5459937627255915
1662729296418510000,0.549510009765625,0.15963643520474433,-0.23320845189392567,1.898825788387656
1662729296428466200,0.559466064453125,0.5268307482182979,-0.5694026464879512,1.9307970899268985
1662729296438422000,0.569422119140625,0.5554202983647585,-0.7402928816348314,1.7556489050745963
1662729296448377000,0.579377197265625,0.3447311367928982,-0.7072697329550981,1.5166152541585265
1662729296458333000,0.5893330078125,-0.011411036330461501,-0.6498398727715015,1.2057593528300523
1662729296468289000,0.5992890625,-0.33044016111195085,-0.6226344704598188,1.1015706640809775
1662729296478245000,0.6092451171875,-0.5709294176638126,-0.6058358958721161,1.3918436499774456
1662729296488200000,0.619199951171875,-0.6313999607175588,-0.6803039846181869,1.956807144974172
1662729296498156000,0.629156005859375,-0.40882279295325274,-0.9386673360347747,2.4603093323141336
1662729296508112000,0.63911181640625,0.10393617529273033,-1.1718868938446043,2.8714237433359027
1662729296518068000,0.64906787109375,0.7633586999237537,-1.251566579759121,3.0194679404243825
1662729296528023000,0.65902294921875,1.391730837252736,-1.2324766793638466,2.8608246079102155
1662729296537979100,0.668979248046875,1.6029513292223214,-1.233071138125658,2.660904385372996
1662729296547935000,0.67893505859375,1.111720886695385,-1.3629098164379596,2.6789623123720285
1662729296557891000,0.68889111328125,0.014300328031182289,-1.668188063764572,2.9403195849075914
1662729296567847000,0.698846923828125,-1.0309171651870013,-1.782360386389494,3.252091578167677
1662729296577802000,0.708802001953125,-1.3512591261327267,-1.5791589502245187,3.846623405215144
1662729296587758000,0.718758056640625,-0.9022925388395786,-1.456705705988407,4.2711110925510525
1662729296597714000,0.7287138671875,-0.09270867883563041,-1.4580980371296406,4.036305142332613
1662729296607670000,0.738669921875,0.6501350563257933,-1.2949936335533856,3.796488378214836
1662729296617625000,0.748625,0.9227204098403453,-1.0586322705864906,3.709215460692346
1662729296627581200,0.758581298828125,0.7096522441774606,-0.9661866266012191,3.5032951209574934
1662729296637537000,0.768537109375,0.31168343819379807,-0.7981623022794723,3.192966604503989
1662729296647493000,0.7784931640625,-0.21039163993000984,-0.4911357499808073,2.9378073098257182
1662729296657448000,0.788447998046875,-0.44067923594117164,-0.19227087682783603,2.9329432109206914
1662729296667404000,0.798404052734375,-0.07809621611535549,-0.0308610022097826,3.125664169603586
1662729296677360000,0.808360107421875,0.6040601183712482,0.04565466671586037,3.260236890700459
1662729296687316000,0.81831591796875,1.4094734146922825,0.19352584532499312,3.424664067313075
1662729296697272000,0.82827197265625,2.046864724779129,0.38805823734402656,3.490421903119981
1662729296707227000,0.838226806640625,2.4573007981479167,0.6173246736139059,3.4584608307138085
1662729296717183200,0.848183349609375,2.622636906298995,0.8309744385570287,3.1696044336169957
1662729296727139000,0.85813916015625,2.080893251109123,0.986314053350687,2.272944347706437
1662729296737095200,0.86809521484375,0.9984294385582207,1.0533923241063952,1.0462690480977297
1662729296747050000,0.878050048828125,0.021698621588945387,1.4292872454479335,0.5767524247288703
1662729296757005800,0.888005859375,-0.6748164931178092,2.0651780878439543,0.25390520296394825
1662729296766962200,0.897962158203125,-0.9285954393535852,2.696181450459361,0.026793898901343344
1662729296776918000,0.90791796875,-0.792028914090991,2.9930066344782706,-0.021629063484072685
1662729296786873000,0.917873046875,-0.5240601144611835,2.8189985595718023,-0.1892354546546936
1662729296796829000,0.927828857421875,-0.22878128310143947,2.360379470053315,-0.05397708938121795
1662729296806785000,0.937784912109375,-0.044992403414845464,2.0469103174865246,0.5170943671017885
1662729296816740900,0.947740966796875,0.13315291742682456,1.7500930245131252,1.1382640257060528
1662729296826697200,0.957697265625,-0.25831834323108194,1.2820590409174561,0.9194748520478606
1662729296836652000,0.967652099609375,-0.9270125540763139,1.3879697311535477,0.2856955949783325
1662729296846608000,0.97760791015625,-1.494845174768567,2.046448252932727,-0.39591041214913125
1662729296856564000,0.98756396484375,-1.7212971381396054,3.064258976048231,-0.6024822015300393
1662729296866520000,0.99752001953125,-1.7121341729968784,4.044640132218599,-0.7674389549747109
1662729296876475100,1.00747509765625,-1.6055752479851244,4.465662189270556,-1.5974924792945384
1662729296886431200,1.01743115234375,-1.3481062150597571,4.429530845442414,-2.878697533731162
1662729296896387000,1.027386962890625,-0.6341232482016086,4.697843051682413,-3.8198558097988364
1662729296906343200,1.03734326171875,0.15392214921116829,4.634530855461954,-4.27576827070713
1662729296916298200,1.04729833984375,0.4839309331685304,4.574013550657034,-4.737528580860793
1662729296926254000,1.057254150390625,0.5336345830142498,4.131747922307253,-4.587734617495537
1662729296936210200,1.067210205078125,0.4030909713029861,3.21049641597569,-4.250211804646253
1662729296946166000,1.077166015625,-0.48111587574779985,2.2503899860709904,-4.147278084394335
1662729296956122000,1.0871220703125,-1.9468623818039894,2.2340204505503176,-4.220008974084258
1662729296966077200,1.0970771484375,-2.7278783189713955,2.294679209652543,-4.344097126045823
1662729296976033300,1.107033203125,-2.5642998681426046,2.4523808774024247,-4.296367991143465
1662729296985989000,1.116989013671875,-1.831596418723464,2.9092016853272913,-4.340257986274361
1662729296995945200,1.1269453125,-1.4764099388897418,2.77035435565114,-4.244451341423392
1662729297005900000,1.136900146484375,-1.45170219861269,2.3247715655773877,-4.29483800509721
1662729297015856400,1.1468564453125,-1.3972329418003557,1.7500176211893557,-3.947617097315192
1662729297025812200,1.156812255859375,-1.5153496181368826,1.1826818441033362,-3.2189509405881163
1662729297035768300,1.166768310546875,-1.4903455252617597,0.5914654252141713,-2.518026777267456
1662729297045723100,1.17672314453125,-1.019999465331435,0.25177871232926846,-1.8812635359510779
1662729297055679000,1.186678955078125,-0.16914543730616569,0.18797288737297058,-1.6157828998751937
1662729297065635300,1.19663525390625,0.7495885332465171,0.37392040639817714,-1.7263031297333538
1662729297075591200,1.206591064453125,0.821014770078659,0.27322774307131764,-2.0700375105738638
1662729297085547300,1.21654736328125,0.05901975972354412,0.2518763274848461,-2.5250731886476276
1662729297095502000,1.226502197265625,-1.0282593441545962,0.6556751547962427,-2.7993168307632206
1662729297105458200,1.236458251953125,-1.8063947574496269,0.9555448210775852,-2.9114696302592753
1662729297115414000,1.2464140625,-2.00051798414588,0.9130541713505983,-2.6799559995844957
1662729297125370400,1.256370361328125,-1.9470482597649097,0.7331915251970291,-2.400558920228481
1662729297135325200,1.2663251953125,-1.2650246117472648,0.6752262429624796,-1.7741992917656897
1662729297145281000,1.276281005859375,0.2474672788709402,0.5610305394619703,-0.7328404467370361
1662729297155237000,1.286237060546875,1.2954454689741133,0.3306283771604299,-0.18142646140418944
1662729297165193000,1.29619287109375,1.5087415981739758,0.15271803411841392,-0.29287542347982526
1662729297175149300,1.3061494140625,1.2974182303518056,0.15454992572069168,-1.016111956373602
1662729297185104100,1.316104248046875,0.6503203497648239,0.32038813817501066,-1.9170726620875298
1662729297195060200,1.326060302734375,0.1967465609371662,0.755295804977417,-2.830240084554255
1662729297205016000,1.33601611328125,-0.030348376512527465,1.2095815414667128,-3.3867385335445404
1662729297214972200,1.34597216796875,-0.2074433115184307,1.4204647643059491,-3.2344097910046576
1662729297224927200,1.35592724609375,-0.47017830214798445,1.1537158618599175,-2.4265314197443426
1662729297234883000,1.365883056640625,-0.5302414334446192,0.8335089254707098,-1.4567096515111624
1662729297244839200,1.375839111328125,-0.2559066059142351,0.5459364307045936,-0.7023233625940978
1662729297254795000,1.385794921875,0.06292670403420925,0.24459201569557187,-0.3815846574157476
1662729297264750300,1.395750244140625,0.2290279513388872,0.14956629208922384,-0.4886994627445936
1662729297274706200,1.4057060546875,0.17131985873579977,0.1619780298948288,-0.7042696743562817
1662729297284662300,1.415662353515625,0.15772446410357951,0.28100129968225956,-0.8152487538978457
1662729297294618000,1.4256181640625,0.10687982752919196,0.4218734131842851,-1.0588260395929217
1662729297304574200,1.43557421875,-0.010740005201101303,0.5883902555525302,-1.426602828669548
1662729297314529300,1.445529296875,-0.3829541922032833,0.9165303230285644,-1.8984639693379401
1662729297324485000,1.455485107421875,-1.091170266097784,1.3050310434430836,-2.362639816200733
1662729297334441200,1.465441162109375,-1.8468033402055501,1.557235287708044,-2.4851854148954153
1662729297344397000,1.47539697265625,-2.0554127728939053,1.589195775592327,-1.944889620426297
1662729297354352000,1.48535205078125,-1.292743808799982,1.2918132499516009,-0.46728111940175293
1662729297364308200,1.49530810546875,-0.3384884430110454,0.6393225704103708,0.8667566766865551
1662729297374264300,1.505264404296875,0.3008966712415218,0.28216917441785333,1.0357267574258149
1662729297384220200,1.51522021484375,0.6525590686023235,0.7170236497282981,-0.16343042066022753
1662729297394175000,1.525175048828125,0.6405155795872212,-0.16855331663191317,-0.4695462878547609
1662729297404131000,1.535131103515625,0.8829407726377249,0.10712941837608814,-1.067686953049153
1662729297414087200,1.545087158203125,1.2661696901291608,1.3347376149207353,-3.0588124010801314
1662729297424043300,1.555043212890625,1.4306418749272822,2.304996021005511,-4.97441864387691
1662729297433999000,1.5649990234375,1.267771280106902,2.5359020411759614,-5.221740961319208
1662729297443954200,1.5749541015625,0.8211673302918672,2.32150291917026,-4.328969115018844
1662729297453910000,1.584909912109375,0.32027123379707334,2.388029985783994,-2.9829870525062083
1662729297463866000,1.5948662109375,-0.0802349817097187,2.672289118218422,-1.9741285743921995
1662729297473822200,1.604822265625,-0.15278700770139694,2.9316432342380283,-1.524561975379288
1662729297483777000,1.614777099609375,0.07564239322245121,3.1490164036184547,-1.3591837816521524
1662729297493733000,1.624733154296875,0.5048480489909649,3.3386133850619193,-1.13397042016536
1662729297503689000,1.63468896484375,0.8670423617601394,3.3457600419461726,-0.5579159145727753
1662729297513645000,1.64464501953125,0.7420961316645145,3.071957129335403,0.18468465948253868
1662729297523600100,1.65460009765625,0.11591770498752593,2.5272569624274968,1.2306956411659717
1662729297533556200,1.66455615234375,-0.8888695781648158,2.26091927113086,2.1340955567255615
1662729297543512000,1.674511962890625,-1.8760645060032606,2.0301034134618936,2.651369372047484
1662729297553468200,1.68446826171875,-2.5343232475519177,1.7826409568965433,2.935956129001081
1662729297563424000,1.694424072265625,-2.674405671980977,1.5280289208374918,3.030901480847597
1662729297573379000,1.704379150390625,-2.513616559609771,1.3356152745380996,2.8543346613690255
1662729297583335200,1.714335205078125,-2.0179694696843624,1.1455679189786314,3.0092312085703012
1662729297593291000,1.724291015625,-1.3404144915133713,0.7543702876303344,3.355512497414648
1662729297603247000,1.7342470703125,-0.8690846812427043,0.45275056281127035,3.44435807108134
1662729297613202200,1.7442021484375,-0.7703507507681846,0.2699862038668245,3.410250926557183
1662729297623158300,1.754158203125,-0.9418120638012886,-0.03216711637228727,3.399139749956131
1662729297633114000,1.764114013671875,-1.019731169784069,-0.19355550981089473,3.248573925435543
1662729297643070200,1.7740703125,-0.8117185339450835,-0.16279679893180726,3.001993366271257
1662729297653025000,1.78402490234375,-0.37040742984116076,-0.19180062896758318,2.7846295492410658
1662729297662981000,1.793981201171875,-0.06894435688853263,-0.21516732989922166,2.6395769351840017
1662729297672937200,1.803937255859375,0.05550502960085869,-0.17304317539706826,2.638884276744723
1662729297682893000,1.81389306640625,0.10304244132339954,-0.21064152303785083,2.696196063506603
1662729297692849200,1.82384912109375,0.02578326055407524,-0.31974731952082364,2.842972432616353
1662729297702804000,1.833803955078125,-0.4579793303102255,-0.4393905113048851,3.1343934195041654
1662729297712760300,1.84376025390625,-1.0908593004524707,-0.6623385582081973,3.4198809246897697
1662729297722716200,1.853716064453125,-1.3735761718809605,-0.5661575270868837,3.3479306639835236
1662729297732672300,1.86367236328125,-1.2324117974340916,-0.18212576877996325,2.938041410842538
1662729297742627000,1.873626953125,-0.8584066353619099,0.14408512073177843,2.522686878032982
1662729297752583200,1.883583251953125,-0.5648872148901224,0.35416517396196723,2.3255296904683114
1662729297762539300,1.893539306640625,-0.6918412776768207,0.4796500409789383,2.146517815925181
1662729297772495400,1.903495361328125,-1.0404226601570845,0.5028485457368195,2.0846713083431125
1662729297782450200,1.9134501953125,-1.3715671701461076,0.36135859259739517,2.335515954692662
1662729297792406000,1.923406005859375,-1.6545967607855796,0.059643298449367284,2.883232546812296
1662729297802362000,1.933362060546875,-1.9057704929590225,-0.4450894535988569,3.931099970017373
1662729297812318200,1.943318115234375,-2.063636411359906,-1.0213619127910583,5.27738802973926
1662729297822274300,1.9532744140625,-1.9899492438584565,-1.2005497284229845,6.4551873624980445
1662729297832229000,1.96322900390625,-2.218085214793682,-0.5320302165575325,6.754433928444981
1662729297842185200,1.973185302734375,-3.4581507418513295,1.1255749322637916,4.790735562652349
1662729297852141000,1.98314111328125,-3.9159938785612582,2.1153373725026845,3.5077395331457257
1662729297862097200,1.99309716796875,-3.854579332655668,2.101118439144641,3.046518736696243
1662729297872052500,2.003052490234375,-3.656280866101384,2.161317471780628,2.546468443375826
1662729297882008600,2.013008544921875,-3.182832163980603,2.363396772047877,2.3373706426486374
1662729297891964400,2.02296435546875,-2.558187522742152,2.4825480521291494,2.5345307528227567
1662729297901920500,2.03292041015625,-1.6420464912921189,2.5681156270384786,2.707390242215991
1662729297911876400,2.04287646484375,-0.946207083889842,2.490064126847684,3.2157635427236557
1662729297921831400,2.05283154296875,-0.7126122630268334,2.3063103184744715,3.6962621633559465
1662729297931787500,2.06278759765625,-0.09708265613615512,2.3440163642734286,3.384087142252922
1662729297941743400,2.072743408203125,1.0432996768981218,2.5694874999135733,2.5005972112998367
1662729297951699500,2.082699462890625,2.051775877696276,2.6788115057244895,1.7343576952427624
1662729297961654500,2.092654541015625,2.3647581235289574,2.4053964233875273,1.2241596635259686
1662729297971610600,2.102610595703125,1.9864397744327782,2.1220874312847853,0.8438264674760401
1662729297981566500,2.11256640625,1.2069219668686388,2.0992466539233923,0.617628332735598
1662729297991522600,2.1225224609375,0.43477790294289587,2.2325404411256313,0.22072131076455115
1662729298001477400,2.132477294921875,0.47953883568942546,2.2973019593715667,-0.5136904038771987
1662729298011433700,2.142433837890625,1.4177648576974868,2.369870351976156,-0.6634902124613523
1662729298021389600,2.1523896484375,2.485472999665141,2.136299496510625,-0.8053644887432455
1662729298031345400,2.162345458984375,2.938089341637492,1.7924352056801318,-1.2526847701340913
1662729298041301500,2.172301513671875,2.5263386785387993,1.7001918062686918,-0.9369093864515423
1662729298051256300,2.18225634765625,1.7134224592417477,1.5096622201502323,-0.38888328999131916
1662729298061212400,2.19221240234375,0.9704910457968712,1.4134762205928564,0.14497721073329448
1662729298071168500,2.20216845703125,0.5752198083341121,1.3022937274336814,0.4489887991249561
1662729298081124600,2.21212451171875,0.5090279650241136,1.1796522671490908,0.12264796309061347
1662729298091079400,2.222079345703125,0.7266144848942756,1.3146060965180397,-0.3409159624189138
1662729298101035500,2.232035400390625,0.9988198991805315,1.6163433102369307,-0.4985752523317933
1662729298110991400,2.241991455078125,1.788757393950224,1.3998895937889813,-0.6222504395782947
1662729298120947700,2.25194775390625,1.8784832575827837,0.8360556873440742,-0.35276188303530215
1662729298130903600,2.261903564453125,1.0305629449218512,0.5798784477949143,0.38935295332968234
1662729298140858400,2.2718583984375,0.32917817835211755,0.4228384588241577,1.0956833596080542
1662729298150814500,2.281814453125,-0.15887363413870334,0.13019874379634858,1.405140353924036
1662729298160770300,2.291770263671875,-0.30930911027789115,0.20841361785531043,1.2633397274002431
1662729298170726700,2.3017265625,-0.192847215411067,0.3964548942893743,0.9434835772100836
1662729298180681500,2.311681396484375,0.08497253162562847,0.33691023390889163,0.49419163042008873
1662729298190637600,2.321637451171875,0.4249450757145881,0.355447761118412,0.15037702395021915
1662729298200593400,2.331593505859375,0.7351321378707886,0.4023720093786716,-0.09535773203969002
1662729298210549500,2.341549560546875,0.904947437262535,0.4046837934523821,-0.18583324499577283
1662729298220504600,2.351504638671875,0.8660445828944444,0.37251638481914995,-0.1396773507595062
1662729298230460400,2.36146044921875,0.48868835682868955,0.4603787926673889,0.22082857053130864
1662729298240416500,2.37141650390625,-0.007286065354943275,0.4667003969043493,0.5877294900888577
1662729298250372400,2.381372314453125,0.010068389549851417,0.5037684370607137,0.5406780717849731
1662729298260328400,2.391328369140625,0.4246504766821861,0.6025228258013725,0.22336013483554124
1662729298270283500,2.401283447265625,0.9782681095391511,0.5716740985512733,-0.40277006878554816
1662729298280239600,2.411239501953125,1.6409873376280069,0.6321358737766742,-0.9702347329482436
1662729298290195500,2.421195556640625,2.117685981455445,0.699293347248435,-1.3549758085682988
1662729298300151600,2.431151611328125,2.2682436226695777,0.8146265303462743,-1.7219909656226633
1662729298310106600,2.441106689453125,1.9192180035531519,0.8898527439832686,-2.1123890440911053
1662729298320062500,2.4510625,1.0411942290514706,0.9744991123944521,-2.0897811987027524
1662729298330018600,2.4610185546875,-0.02276420499384403,1.0703192012488842,-1.57530548966676
1662729298339974400,2.470974365234375,-0.5375391892373561,0.9683961193442344,-1.229093174405396
1662729298349930500,2.480930419921875,-0.6051841539651155,0.7895797673732042,-1.26875415366441
1662729298359885600,2.490885498046875,-0.2782897026360035,0.6547633006483317,-1.4707798240482806
1662729298369841700,2.500841552734375,0.46218847243785854,0.6981938615739345,-1.6142136047318576
1662729298379797500,2.510797607421875,1.0649088666379452,0.724621849772334,-1.8169436239928005
1662729298389753600,2.520753662109375,1.2632172700643538,0.6883101809412241,-2.1064013479836285
1662729298399708400,2.53070849609375,1.1874912902116774,0.8023410492688416,-2.2107348520308734
1662729298409664500,2.54066455078125,0.8290823412001133,0.8783481841504573,-2.0969804625570774
1662729298419620600,2.55062060546875,0.26382220134437084,0.8717255511403084,-1.944243577607721
1662729298429576400,2.560576416015625,-0.20523148068785665,0.8958066839516162,-1.8579405280306933
1662729298439532500,2.570532470703125,-0.5755383727639913,0.8767173680782318,-1.85658078398481
1662729298449487400,2.5804873046875,-0.7312047352939843,0.862539205121994,-1.9277168056987224
1662729298459443500,2.590443359375,-0.7038917809545994,0.9132844729751348,-1.9802178311780094
1662729298469399600,2.600399658203125,-0.5662228474080562,0.8501689683705568,-1.951603438851237
1662729298479355600,2.610355712890625,-0.46736908994615073,0.7369435712069272,-1.9643971617117524
1662729298489310500,2.620310546875,-0.3908879078119993,0.6774918498069048,-1.8253665844231843
1662729298499266300,2.630266357421875,-0.44437984402477737,0.6527794333547353,-1.4801286671519278
1662729298509222400,2.640222412109375,-0.7998363729715346,0.6277338394254446,-1.077130342568457
1662729298519178500,2.650178466796875,-1.25787181738317,0.5890607021600007,-0.898089826452732
1662729298529134600,2.660134521484375,-1.5485884553939102,0.6013298166245222,-0.8840627624049783
1662729298539089400,2.67008935546875,-1.6628268289923667,0.6415893462985753,-0.7099749002605676
1662729298549045500,2.68004541015625,-1.589389836859703,0.5083773921608925,-0.2889619032979011
1662729298559001300,2.69000146484375,-1.3696277265161274,0.14138064754605292,-0.0170230309933424
1662729298568957400,2.69995751953125,-1.1067419292390346,-0.16108604949116706,0.029318448942899703
1662729298578912500,2.70991259765625,-1.0131231498211621,-0.297824716450274,-0.07295563835650681
1662729298588868400,2.719868408203125,-1.1891980941295623,-0.29768706154525276,-0.25631401767134665
1662729298598824400,2.729824462890625,-1.7606459827095269,-0.17432868516296146,-0.4248784402191639
1662729298608780300,2.7397802734375,-2.4005343703091144,0.014154489819705485,-0.723286509515345
1662729298618736400,2.749736328125,-2.7809423851609227,0.26232114913165566,-1.0844611238479613
1662729298628691500,2.75969140625,-2.8517706560999154,0.4734577622100711,-0.9456018114730715
1662729298638647600,2.7696474609375,-2.4911802713960407,0.41867374036014077,-0.24875907224714755
1662729298648603400,2.779603271484375,-1.9708043984055519,0.1627341089591384,0.22867314655184745
1662729298658559500,2.7895595703125,-1.3057201947510242,-0.03556377307325601,0.48695057325065133
1662729298668514600,2.7995146484375,-0.7137573414087295,-0.16954057410359383,0.5654316970303654
1662729298678470400,2.809470458984375,-0.39275954690277576,-0.28810674777328965,0.3418210945650935
1662729298688426500,2.819426513671875,-0.3421943117916584,-0.2967918662711978,-0.05382862082123756
1662729298698382300,2.82938232421875,-0.28736265140771866,-0.21788725638240575,-0.4240700464457273
1662729298708338400,2.83933837890625,-0.15781798760592936,-0.10524170493334531,-0.6278107040539384
1662729298718293500,2.84929345703125,-0.1713794799685478,0.01871872899532318,-0.559013062159717
1662729298728249600,2.85924951171875,-0.3664987319648266,0.07663666495680808,-0.3401449780464172
1662729298738205400,2.869205322265625,-0.65137190464437,0.1022360933765769,-0.2159589186683297
1662729298748161500,2.87916162109375,-0.892601165908575,0.14340192424058915,-0.19489041167646645
1662729298758116600,2.88911669921875,-1.0477823752701283,0.18076485569030046,-0.21661445996761322
1662729298768072400,2.899072509765625,-1.030287050589919,0.16803689154237508,-0.2832151763394475
1662729298778028500,2.909028564453125,-0.748480864265561,0.14882745642066,-0.31462153747230764
1662729298787984400,2.918984375,-0.2559364165306091,0.1389867381468415,-0.2857081621989608
1662729298797940500,2.9289404296875,0.15486556754112243,0.08191431309878826,-0.2641793442189693
1662729298807895300,2.938895263671875,0.3675298285782337,0.015241992795467375,-0.18619944795966148
1662729298817851600,2.9488515625,0.32549569044709203,0.009349427625536918,-0.10291969172656536
1662729298827807500,2.958807373046875,0.12263093889057636,0.10767945347428322,-0.07729600564837455
1662729298837763600,2.968763671875,-0.23613749108314513,0.17496230689138173,-0.18958119935244322
1662729298847718400,2.978718505859375,-0.5290028315603733,0.20029577785134314,-0.36729660434424877
1662729298857674500,2.988674560546875,-0.6223708510875702,0.19535978275388477,-0.49295010592639443
1662729298867630300,2.99863037109375,-0.4925386025160551,0.1463578514367342,-0.5409864070817828
1662729298877586200,3.008586181640625,-0.1955132197499275,0.13292524615079163,-0.4911588385954499
1662729298887542300,3.018542236328125,0.1620171928614378,0.07684650831520556,-0.37300387607514857
1662729298897497000,3.0284970703125,0.3876595934152603,-0.06638765814304351,-0.2266407639414072
1662729298907453200,3.038453125,0.34009470916390416,-0.289739901933074,-0.06237783797979354
1662729298917409300,3.0484091796875,0.17954174363613126,-0.2592591312125325,0.05758271265774965
1662729298927365400,3.058365478515625,-0.020803718575835226,-0.05862053127288818,0.04244914867281913
1662729298937320200,3.0683203125,-0.24369652816057205,0.07741583263576031,-0.022566052073240278
1662729298947276300,3.0782763671875,-0.3582143032222986,0.12740589820742607,-0.0612885814383626
1662729298957232000,3.088232177734375,-0.26108605437874793,0.11780278808176517,-0.006598375351727009
1662729298967188200,3.098188232421875,-0.04152852669656276,0.03252951994389296,0.07985738056898116
1662729298977144300,3.108144287109375,0.2102320654541254,-0.11543985834270715,0.25719226181060073
1662729298987099100,3.11809912109375,0.28146307197511194,-0.36161037540137764,0.5382265869796276
1662729298997055200,3.12805517578125,0.31568273696303367,-0.40108723026514054,0.8368462531998753
1662729299007011000,3.138010986328125,0.47621933587789533,-0.1572849036425352,0.9091691466107964
1662729299016967400,3.147967529296875,0.5649281314224004,0.02675736628323793,0.8880410183861851
1662729299026923300,3.15792333984375,0.5347036735504865,0.09732260237187147,0.9046393942266702
1662729299036878300,3.16787841796875,0.37003216678798195,0.08185761447548866,0.8702814898118376
1662729299046834200,3.177834228515625,0.11032792215645312,0.005144669412076473,0.8049418794170021
1662729299056790300,3.187790283203125,-0.15001403585672377,0.017258008792996406,0.6543035741820931
1662729299066746000,3.19774609375,-0.39855917309224603,0.07996054868251085,0.394088749679923
1662729299076701200,3.207701171875,-0.6155179164528847,0.07992197023779153,0.28460341582745313
1662729299086657300,3.2176572265625,-0.8117559433460235,0.1072445691883564,0.3875084945067763
1662729299096613000,3.227613037109375,-1.0086240848362444,0.10537380688041448,0.557554680044949
1662729299106569200,3.2375693359375,-1.0821282969862223,0.10372311706393957,0.5569327487543225
1662729299116525000,3.247525146484375,-0.9626531917780637,0.1751639669433236,0.4730862985491752
1662729299126480400,3.25748046875,-0.6519032350420951,0.26542028419077396,0.467230558258295
1662729299136436200,3.267436279296875,-0.1760328587323427,0.24415011714696883,0.6226730489045381
1662729299146392300,3.277392333984375,0.27581600599884987,0.14591478384435175,0.8480456926062703
1662729299156348200,3.28734814453125,0.5768740052819251,-0.023184768493473527,1.0196171880155802
1662729299166303200,3.29730322265625,0.6043547174036502,-0.2211807449698448,1.145733046412468
1662729299176259300,3.30725927734375,0.40672786650061604,-0.3924754692643881,1.258817281539738
1662729299186215200,3.317215087890625,0.20279519345164299,-0.32393297117501496,1.2506982724919915
1662729299196171300,3.327171142578125,0.022659575575590132,-0.148993460637331,1.0710668047457932
1662729299206127000,3.337127197265625,-0.07773205897808075,-0.06752689130604267,0.7532230903565883
1662729299216082400,3.34708251953125,-0.042566637572646136,0.02467997548729181,0.4987804195150733
1662729299226038300,3.357038330078125,0.10345219116806983,0.11154314316511153,0.4115814440116286
1662729299235994400,3.366994384765625,0.2553098090648651,0.10879209089130162,0.5603682761609554
1662729299245950200,3.3769501953125,0.38945115300714966,0.07160510053038596,0.8077025763019919
1662729299255905000,3.386905029296875,0.4526397228479385,0.036514497926831244,0.9869073430687189
1662729299265861400,3.396861328125,0.34969781928956506,-0.007379588857293128,1.1325345421433448
1662729299275817200,3.406817138671875,0.16411445740163325,-0.08375906418263912,1.111883091519773
1662729299285773300,3.416773193359375,0.0929483328104019,-0.10466390504539012,0.8417056759297847
1662729299295729200,3.426729248046875,0.06419570105671882,-0.019351181679964063,0.576319440139085
1662729299305684200,3.436684326171875,0.08305237721800804,0.11017039350718259,0.34945874983668324
1662729299315640300,3.446640380859375,0.28200375472307204,0.2273158867239952,0.21073592332303523
1662729299325596400,3.456596435546875,0.6403805550307035,0.25919804867506024,0.32916341917440295
1662729299335552300,3.46655224609375,0.8181430140346289,0.13419745804369448,0.761277655865997
1662729299345508400,3.47650830078125,0.397139953944087,-0.16972031458467243,1.5132047150626777
1662729299355463200,3.486463134765625,-0.384256506973505,-0.5159411054134369,1.9436057180956006
1662729299365419300,3.496419189453125,-0.9709212539076805,-0.4729597495600581,1.949357559620589
1662729299375375400,3.506375244140625,-1.4295745379567146,-0.15689035136699675,1.8525014057166873
1662729299385331200,3.516331298828125,-1.6953116330116986,0.061141281922161575,1.535741979432851
1662729299395286300,3.526286376953125,-1.4628198049545287,0.21479075167179107,1.3441072085514665
1662729299405242000,3.5362421875,-1.0138064559102058,0.240369429564476,1.3452274447530508
1662729299415198200,3.5461982421875,-0.4837450552076101,0.1227250469148159,1.346465169854462
1662729299425154300,3.556154296875,-0.16090192509591578,-0.12217793442606925,1.6351285285972057
1662729299435110400,3.5661103515625,0.16630173831284045,-0.24055589204728603,2.1207178964972493
1662729299445065200,3.576065185546875,0.9371119232863188,-0.11392331629991531,1.677776999234408
1662729299455021000,3.58602099609375,1.3074123856216668,0.0020499182671308517,0.732960346789658
1662729299464977200,3.59597705078125,0.9141068952739239,0.33976766916662454,0.06316095118150114
1662729299474933200,3.605933349609375,0.5509007751137018,0.8011348883494734,-0.3162318587457761
1662729299484888300,3.615888427734375,0.2632341723233461,0.977417922450602,-0.13604644691124557
1662729299494844200,3.62584423828125,-0.06487666905820369,0.6658434975892304,0.24872458545565604
1662729299504800300,3.63580029296875,-0.17474807961881159,0.26444208680838344,0.5317052223868668
1662729299514756000,3.645756103515625,-0.42527182345092296,0.01485620834827423,0.7608069696143269
1662729299524712400,3.65571240234375,-0.8871692039877176,-0.18401830452829598,0.9400951768808067
1662729299534667300,3.665667236328125,-1.253043666574359,-0.21266016938388346,0.8625959037452936
1662729299544623000,3.675623046875,-1.327677175015211,-0.0440975004017353,0.656474488480389
1662729299554579200,3.6855791015625,-0.9770663325339555,0.20789690050482748,0.4058730032369494
1662729299564535000,3.69553515625,-0.3520663019865751,0.32615327757298945,0.005385054039210081
1662729299574491100,3.7054912109375,0.3074421473622322,0.3687929803818464,-0.4530012496367097
1662729299584446200,3.7154462890625,0.8696399770379066,0.33819033684730526,-0.8517280343808233
1662729299594402300,3.72540234375,1.2860609700351953,0.3210363729506731,-1.1985700258478522
1662729299604358100,3.735358154296875,1.491682326823473,0.391720266982913,-1.3978278389535843
1662729299614314200,3.745314208984375,1.4157348131746053,0.45666357153654097,-1.4267279163539408
1662729299624269300,3.755269287109375,1.1194102721542118,0.5095753697738051,-1.3644510545305908
1662729299634225200,3.76522509765625,0.8352923017561436,0.5058806069090962,-1.3543432097531853
1662729299644181200,3.77518115234375,0.6976946798801422,0.49416591145694255,-1.2530777149744332
1662729299654137000,3.78513720703125,0.6128010587096214,0.43912791484594343,-1.205680880766362
1662729299664093200,3.79509326171875,0.5064870483696461,0.3833399766504764,-1.226878567095846
1662729299674048300,3.80504833984375,0.41249300589859483,0.39676206054240465,-1.1392387890223412
1662729299684004400,3.81500439453125,0.3927051863670349,0.3641103755235672,-0.9711777128867805
1662729299693960200,3.824960205078125,0.42185996918082236,0.21556904256790876,-0.7985388805069029
1662729299703916300,3.834916259765625,0.3933224414825439,0.1930693337291479,-0.6570270077966153
1662729299713871400,3.844871337890625,0.30057576872408387,0.1916819710239768,-0.39939175145886835
1662729299723827200,3.8548271484375,0.20105331822037695,0.04322247113287449,0.017135551457107066
1662729299733783300,3.864783203125,-0.1446755974382162,-0.13208879532665013,0.28278759857714175
1662729299743739100,3.8747392578125,-0.6233171920269728,-0.17012801860272883,0.34716143267974253
1662729299753695200,3.8846953125,-0.979064812874794,-0.07812251960039138,0.23245734126567838
1662729299763650300,3.894650390625,-0.9692197106868028,0.03551087384223938,0.10169424158483743
1662729299773606400,3.9046064453125,-0.6114455524474383,0.1079898345977068,-0.02145122269913554
1662729299783562200,3.914562255859375,-0.27779870424866676,0.06321370428204535,-0.17806231873333453
1662729299793518300,3.924518310546875,-0.14252163427472114,-0.042027123868465424,-0.23533947257325052
1662729299803473200,3.93447314453125,-0.2421165654927492,-0.09625497314035891,-0.31415421222150325
1662729299813429000,3.944428955078125,-0.2697229498207569,-0.02620060918331146,-0.38853433042317626
1662729299823385300,3.95438525390625,-0.028034838873147963,0.003293780848383903,-0.2897232430592179
1662729299833341200,3.964341064453125,0.33525077626407146,-0.14111235199868677,0.1414344235599041
1662729299843297300,3.97429736328125,0.48482525165975093,-0.3286509396076202,0.6165612880259752
1662729299853252000,3.984252197265625,0.5658627819240093,-0.3352431774795055,0.8761096114434301
1662729299863208200,3.994208251953125,1.1244313151866197,-0.4377209706574678,0.6459585012935102
1662729299873164300,4.004164306640625,1.238943829551339,-0.6310521701931953,0.15105357150491328
1662729299883120400,4.014120361328125,1.173577331149578,-0.5764046342045068,0.03106792295873165
1662729299893075200,4.0240751953125,0.7940478526979684,-0.5250765980273485,-0.013449410290271043
1662729299903031300,4.03403125,0.3022831571638584,-0.46027124063968655,-0.06155468502864241
1662729299912987100,4.043987060546875,-0.09064882369637489,-0.319154796987772,-0.06390957759171724
1662729299922943200,4.053943115234375,-0.5138789121866226,-0.1543663858473301,-0.09033741965964436
1662729299932899300,4.0638994140625,-0.8101905937254429,-0.0645189416617155,-0.10548840970341115
